Создан как новый массив данных;Образец 008 полученный BalashovM Дата среда, апреля 28 2021
cm-1;A
4000,00;0,0076
3999,00;0,0076
3998,00;0,0076
3997,00;0,0077
3996,00;0,0077
3995,00;0,0077
3994,00;0,0077
3993,00;0,0077
3992,00;0,0077
3991,00;0,0077
3990,00;0,0077
3989,00;0,0077
3988,00;0,0077
3987,00;0,0077
3986,00;0,0077
3985,00;0,0077
3984,00;0,0076
3983,00;0,0076
3982,00;0,0077
3981,00;0,0077
3980,00;0,0077
3979,00;0,0077
3978,00;0,0077
3977,00;0,0077
3976,00;0,0077
3975,00;0,0077
3974,00;0,0077
3973,00;0,0077
3972,00;0,0077
3971,00;0,0077
3970,00;0,0077
3969,00;0,0077
3968,00;0,0077
3967,00;0,0077
3966,00;0,0077
3965,00;0,0077
3964,00;0,0077
3963,00;0,0077
3962,00;0,0077
3961,00;0,0077
3960,00;0,0077
3959,00;0,0077
3958,00;0,0077
3957,00;0,0077
3956,00;0,0077
3955,00;0,0077
3954,00;0,0077
3953,00;0,0077
3952,00;0,0077
3951,00;0,0077
3950,00;0,0077
3949,00;0,0077
3948,00;0,0077
3947,00;0,0077
3946,00;0,0077
3945,00;0,0077
3944,00;0,0077
3943,00;0,0077
3942,00;0,0077
3941,00;0,0077
3940,00;0,0077
3939,00;0,0077
3938,00;0,0077
3937,00;0,0077
3936,00;0,0077
3935,00;0,0077
3934,00;0,0077
3933,00;0,0077
3932,00;0,0077
3931,00;0,0077
3930,00;0,0077
3929,00;0,0078
3928,00;0,0078
3927,00;0,0078
3926,00;0,0078
3925,00;0,0078
3924,00;0,0078
3923,00;0,0078
3922,00;0,0078
3921,00;0,0078
3920,00;0,0078
3919,00;0,0078
3918,00;0,0078
3917,00;0,0078
3916,00;0,0077
3915,00;0,0077
3914,00;0,0077
3913,00;0,0077
3912,00;0,0077
3911,00;0,0077
3910,00;0,0077
3909,00;0,0077
3908,00;0,0077
3907,00;0,0077
3906,00;0,0077
3905,00;0,0078
3904,00;0,0078
3903,00;0,0078
3902,00;0,0078
3901,00;0,0078
3900,00;0,0078
3899,00;0,0077
3898,00;0,0077
3897,00;0,0077
3896,00;0,0078
3895,00;0,0078
3894,00;0,0078
3893,00;0,0078
3892,00;0,0078
3891,00;0,0078
3890,00;0,0078
3889,00;0,0078
3888,00;0,0078
3887,00;0,0078
3886,00;0,0078
3885,00;0,0078
3884,00;0,0078
3883,00;0,0078
3882,00;0,0078
3881,00;0,0078
3880,00;0,0078
3879,00;0,0078
3878,00;0,0078
3877,00;0,0078
3876,00;0,0078
3875,00;0,0078
3874,00;0,0078
3873,00;0,0078
3872,00;0,0078
3871,00;0,0078
3870,00;0,0078
3869,00;0,0078
3868,00;0,0078
3867,00;0,0078
3866,00;0,0078
3865,00;0,0078
3864,00;0,0078
3863,00;0,0078
3862,00;0,0078
3861,00;0,0078
3860,00;0,0078
3859,00;0,0078
3858,00;0,0078
3857,00;0,0078
3856,00;0,0078
3855,00;0,0078
3854,00;0,0078
3853,00;0,0078
3852,00;0,0078
3851,00;0,0078
3850,00;0,0078
3849,00;0,0078
3848,00;0,0078
3847,00;0,0078
3846,00;0,0078
3845,00;0,0078
3844,00;0,0078
3843,00;0,0078
3842,00;0,0078
3841,00;0,0078
3840,00;0,0078
3839,00;0,0078
3838,00;0,0078
3837,00;0,0078
3836,00;0,0078
3835,00;0,0078
3834,00;0,0078
3833,00;0,0078
3832,00;0,0078
3831,00;0,0078
3830,00;0,0078
3829,00;0,0078
3828,00;0,0078
3827,00;0,0078
3826,00;0,0078
3825,00;0,0078
3824,00;0,0078
3823,00;0,0078
3822,00;0,0078
3821,00;0,0078
3820,00;0,0078
3819,00;0,0078
3818,00;0,0078
3817,00;0,0078
3816,00;0,0078
3815,00;0,0078
3814,00;0,0078
3813,00;0,0078
3812,00;0,0078
3811,00;0,0078
3810,00;0,0078
3809,00;0,0078
3808,00;0,0078
3807,00;0,0078
3806,00;0,0078
3805,00;0,0078
3804,00;0,0078
3803,00;0,0078
3802,00;0,0078
3801,00;0,0078
3800,00;0,0078
3799,00;0,0078
3798,00;0,0078
3797,00;0,0078
3796,00;0,0078
3795,00;0,0078
3794,00;0,0078
3793,00;0,0078
3792,00;0,0078
3791,00;0,0078
3790,00;0,0078
3789,00;0,0078
3788,00;0,0078
3787,00;0,0078
3786,00;0,0078
3785,00;0,0078
3784,00;0,0078
3783,00;0,0078
3782,00;0,0078
3781,00;0,0078
3780,00;0,0078
3779,00;0,0078
3778,00;0,0078
3777,00;0,0078
3776,00;0,0078
3775,00;0,0078
3774,00;0,0078
3773,00;0,0078
3772,00;0,0078
3771,00;0,0078
3770,00;0,0078
3769,00;0,0078
3768,00;0,0078
3767,00;0,0078
3766,00;0,0078
3765,00;0,0078
3764,00;0,0078
3763,00;0,0078
3762,00;0,0078
3761,00;0,0078
3760,00;0,0078
3759,00;0,0078
3758,00;0,0078
3757,00;0,0078
3756,00;0,0078
3755,00;0,0079
3754,00;0,0079
3753,00;0,0079
3752,00;0,0079
3751,00;0,0079
3750,00;0,0079
3749,00;0,0079
3748,00;0,0079
3747,00;0,0079
3746,00;0,0079
3745,00;0,0079
3744,00;0,0079
3743,00;0,0079
3742,00;0,0079
3741,00;0,0079
3740,00;0,0079
3739,00;0,0079
3738,00;0,0079
3737,00;0,0079
3736,00;0,0079
3735,00;0,0079
3734,00;0,0079
3733,00;0,0079
3732,00;0,0079
3731,00;0,0079
3730,00;0,0079
3729,00;0,0079
3728,00;0,0079
3727,00;0,0079
3726,00;0,0079
3725,00;0,0079
3724,00;0,0079
3723,00;0,0079
3722,00;0,0079
3721,00;0,0079
3720,00;0,0079
3719,00;0,0079
3718,00;0,0079
3717,00;0,0079
3716,00;0,0079
3715,00;0,0079
3714,00;0,0079
3713,00;0,0079
3712,00;0,0079
3711,00;0,0079
3710,00;0,0079
3709,00;0,0079
3708,00;0,0079
3707,00;0,0079
3706,00;0,0079
3705,00;0,0079
3704,00;0,0079
3703,00;0,0079
3702,00;0,0079
3701,00;0,0079
3700,00;0,0079
3699,00;0,0079
3698,00;0,0079
3697,00;0,0079
3696,00;0,0079
3695,00;0,0079
3694,00;0,0079
3693,00;0,0079
3692,00;0,0079
3691,00;0,0079
3690,00;0,0079
3689,00;0,0079
3688,00;0,0079
3687,00;0,0079
3686,00;0,0079
3685,00;0,0079
3684,00;0,0079
3683,00;0,0079
3682,00;0,0079
3681,00;0,0079
3680,00;0,0079
3679,00;0,0079
3678,00;0,0079
3677,00;0,0079
3676,00;0,0079
3675,00;0,0079
3674,00;0,0079
3673,00;0,0079
3672,00;0,0079
3671,00;0,0079
3670,00;0,0079
3669,00;0,0079
3668,00;0,0079
3667,00;0,0079
3666,00;0,0079
3665,00;0,0079
3664,00;0,0079
3663,00;0,0079
3662,00;0,0079
3661,00;0,0079
3660,00;0,0079
3659,00;0,0079
3658,00;0,0079
3657,00;0,0079
3656,00;0,0079
3655,00;0,0079
3654,00;0,0079
3653,00;0,0080
3652,00;0,0080
3651,00;0,0080
3650,00;0,0080
3649,00;0,0080
3648,00;0,0080
3647,00;0,0080
3646,00;0,0080
3645,00;0,0080
3644,00;0,0080
3643,00;0,0080
3642,00;0,0080
3641,00;0,0080
3640,00;0,0080
3639,00;0,0080
3638,00;0,0080
3637,00;0,0080
3636,00;0,0080
3635,00;0,0080
3634,00;0,0080
3633,00;0,0081
3632,00;0,0081
3631,00;0,0081
3630,00;0,0081
3629,00;0,0081
3628,00;0,0081
3627,00;0,0081
3626,00;0,0081
3625,00;0,0081
3624,00;0,0081
3623,00;0,0081
3622,00;0,0081
3621,00;0,0081
3620,00;0,0081
3619,00;0,0081
3618,00;0,0081
3617,00;0,0081
3616,00;0,0082
3615,00;0,0082
3614,00;0,0082
3613,00;0,0082
3612,00;0,0082
3611,00;0,0082
3610,00;0,0082
3609,00;0,0082
3608,00;0,0083
3607,00;0,0083
3606,00;0,0083
3605,00;0,0083
3604,00;0,0083
3603,00;0,0083
3602,00;0,0083
3601,00;0,0083
3600,00;0,0083
3599,00;0,0083
3598,00;0,0083
3597,00;0,0083
3596,00;0,0083
3595,00;0,0084
3594,00;0,0084
3593,00;0,0084
3592,00;0,0084
3591,00;0,0084
3590,00;0,0084
3589,00;0,0084
3588,00;0,0084
3587,00;0,0084
3586,00;0,0085
3585,00;0,0085
3584,00;0,0085
3583,00;0,0085
3582,00;0,0085
3581,00;0,0085
3580,00;0,0085
3579,00;0,0085
3578,00;0,0085
3577,00;0,0085
3576,00;0,0085
3575,00;0,0086
3574,00;0,0086
3573,00;0,0086
3572,00;0,0086
3571,00;0,0086
3570,00;0,0086
3569,00;0,0086
3568,00;0,0086
3567,00;0,0086
3566,00;0,0086
3565,00;0,0087
3564,00;0,0087
3563,00;0,0087
3562,00;0,0087
3561,00;0,0087
3560,00;0,0087
3559,00;0,0087
3558,00;0,0088
3557,00;0,0088
3556,00;0,0088
3555,00;0,0088
3554,00;0,0088
3553,00;0,0088
3552,00;0,0088
3551,00;0,0088
3550,00;0,0088
3549,00;0,0088
3548,00;0,0088
3547,00;0,0089
3546,00;0,0089
3545,00;0,0089
3544,00;0,0089
3543,00;0,0089
3542,00;0,0089
3541,00;0,0090
3540,00;0,0090
3539,00;0,0090
3538,00;0,0090
3537,00;0,0090
3536,00;0,0090
3535,00;0,0090
3534,00;0,0091
3533,00;0,0091
3532,00;0,0091
3531,00;0,0091
3530,00;0,0091
3529,00;0,0091
3528,00;0,0091
3527,00;0,0091
3526,00;0,0091
3525,00;0,0091
3524,00;0,0091
3523,00;0,0091
3522,00;0,0091
3521,00;0,0091
3520,00;0,0091
3519,00;0,0091
3518,00;0,0091
3517,00;0,0092
3516,00;0,0092
3515,00;0,0092
3514,00;0,0092
3513,00;0,0092
3512,00;0,0092
3511,00;0,0093
3510,00;0,0093
3509,00;0,0093
3508,00;0,0093
3507,00;0,0093
3506,00;0,0093
3505,00;0,0093
3504,00;0,0093
3503,00;0,0093
3502,00;0,0093
3501,00;0,0093
3500,00;0,0093
3499,00;0,0093
3498,00;0,0093
3497,00;0,0093
3496,00;0,0094
3495,00;0,0094
3494,00;0,0094
3493,00;0,0094
3492,00;0,0094
3491,00;0,0094
3490,00;0,0094
3489,00;0,0094
3488,00;0,0094
3487,00;0,0094
3486,00;0,0094
3485,00;0,0094
3484,00;0,0094
3483,00;0,0094
3482,00;0,0094
3481,00;0,0094
3480,00;0,0094
3479,00;0,0094
3478,00;0,0095
3477,00;0,0095
3476,00;0,0095
3475,00;0,0095
3474,00;0,0095
3473,00;0,0095
3472,00;0,0095
3471,00;0,0095
3470,00;0,0095
3469,00;0,0095
3468,00;0,0095
3467,00;0,0095
3466,00;0,0095
3465,00;0,0095
3464,00;0,0096
3463,00;0,0096
3462,00;0,0096
3461,00;0,0096
3460,00;0,0096
3459,00;0,0095
3458,00;0,0095
3457,00;0,0095
3456,00;0,0095
3455,00;0,0096
3454,00;0,0096
3453,00;0,0096
3452,00;0,0096
3451,00;0,0096
3450,00;0,0096
3449,00;0,0096
3448,00;0,0096
3447,00;0,0096
3446,00;0,0096
3445,00;0,0096
3444,00;0,0096
3443,00;0,0096
3442,00;0,0096
3441,00;0,0096
3440,00;0,0096
3439,00;0,0096
3438,00;0,0096
3437,00;0,0096
3436,00;0,0096
3435,00;0,0096
3434,00;0,0096
3433,00;0,0096
3432,00;0,0096
3431,00;0,0096
3430,00;0,0096
3429,00;0,0096
3428,00;0,0096
3427,00;0,0096
3426,00;0,0096
3425,00;0,0096
3424,00;0,0096
3423,00;0,0096
3422,00;0,0096
3421,00;0,0096
3420,00;0,0096
3419,00;0,0096
3418,00;0,0096
3417,00;0,0096
3416,00;0,0097
3415,00;0,0097
3414,00;0,0097
3413,00;0,0097
3412,00;0,0097
3411,00;0,0097
3410,00;0,0097
3409,00;0,0097
3408,00;0,0097
3407,00;0,0097
3406,00;0,0097
3405,00;0,0097
3404,00;0,0097
3403,00;0,0097
3402,00;0,0097
3401,00;0,0097
3400,00;0,0097
3399,00;0,0097
3398,00;0,0097
3397,00;0,0097
3396,00;0,0097
3395,00;0,0097
3394,00;0,0097
3393,00;0,0097
3392,00;0,0097
3391,00;0,0097
3390,00;0,0097
3389,00;0,0097
3388,00;0,0097
3387,00;0,0097
3386,00;0,0097
3385,00;0,0097
3384,00;0,0097
3383,00;0,0097
3382,00;0,0097
3381,00;0,0097
3380,00;0,0097
3379,00;0,0097
3378,00;0,0097
3377,00;0,0097
3376,00;0,0097
3375,00;0,0097
3374,00;0,0097
3373,00;0,0097
3372,00;0,0097
3371,00;0,0097
3370,00;0,0097
3369,00;0,0097
3368,00;0,0097
3367,00;0,0097
3366,00;0,0097
3365,00;0,0097
3364,00;0,0097
3363,00;0,0097
3362,00;0,0097
3361,00;0,0097
3360,00;0,0097
3359,00;0,0097
3358,00;0,0097
3357,00;0,0097
3356,00;0,0097
3355,00;0,0097
3354,00;0,0097
3353,00;0,0097
3352,00;0,0097
3351,00;0,0097
3350,00;0,0097
3349,00;0,0097
3348,00;0,0097
3347,00;0,0097
3346,00;0,0097
3345,00;0,0097
3344,00;0,0097
3343,00;0,0097
3342,00;0,0097
3341,00;0,0097
3340,00;0,0097
3339,00;0,0097
3338,00;0,0097
3337,00;0,0097
3336,00;0,0097
3335,00;0,0097
3334,00;0,0097
3333,00;0,0097
3332,00;0,0097
3331,00;0,0097
3330,00;0,0097
3329,00;0,0097
3328,00;0,0097
3327,00;0,0097
3326,00;0,0097
3325,00;0,0097
3324,00;0,0097
3323,00;0,0097
3322,00;0,0097
3321,00;0,0097
3320,00;0,0097
3319,00;0,0097
3318,00;0,0097
3317,00;0,0097
3316,00;0,0097
3315,00;0,0097
3314,00;0,0097
3313,00;0,0097
3312,00;0,0097
3311,00;0,0097
3310,00;0,0097
3309,00;0,0097
3308,00;0,0097
3307,00;0,0097
3306,00;0,0097
3305,00;0,0097
3304,00;0,0097
3303,00;0,0097
3302,00;0,0097
3301,00;0,0097
3300,00;0,0097
3299,00;0,0097
3298,00;0,0097
3297,00;0,0097
3296,00;0,0097
3295,00;0,0097
3294,00;0,0097
3293,00;0,0097
3292,00;0,0097
3291,00;0,0097
3290,00;0,0097
3289,00;0,0097
3288,00;0,0097
3287,00;0,0097
3286,00;0,0097
3285,00;0,0097
3284,00;0,0097
3283,00;0,0097
3282,00;0,0097
3281,00;0,0097
3280,00;0,0097
3279,00;0,0097
3278,00;0,0097
3277,00;0,0097
3276,00;0,0097
3275,00;0,0097
3274,00;0,0097
3273,00;0,0097
3272,00;0,0097
3271,00;0,0097
3270,00;0,0097
3269,00;0,0097
3268,00;0,0097
3267,00;0,0097
3266,00;0,0097
3265,00;0,0097
3264,00;0,0097
3263,00;0,0097
3262,00;0,0097
3261,00;0,0097
3260,00;0,0097
3259,00;0,0097
3258,00;0,0097
3257,00;0,0097
3256,00;0,0097
3255,00;0,0097
3254,00;0,0097
3253,00;0,0097
3252,00;0,0097
3251,00;0,0097
3250,00;0,0097
3249,00;0,0097
3248,00;0,0097
3247,00;0,0097
3246,00;0,0097
3245,00;0,0097
3244,00;0,0097
3243,00;0,0097
3242,00;0,0097
3241,00;0,0097
3240,00;0,0097
3239,00;0,0097
3238,00;0,0097
3237,00;0,0097
3236,00;0,0097
3235,00;0,0097
3234,00;0,0097
3233,00;0,0097
3232,00;0,0097
3231,00;0,0097
3230,00;0,0097
3229,00;0,0097
3228,00;0,0097
3227,00;0,0097
3226,00;0,0097
3225,00;0,0097
3224,00;0,0097
3223,00;0,0097
3222,00;0,0097
3221,00;0,0097
3220,00;0,0097
3219,00;0,0097
3218,00;0,0097
3217,00;0,0097
3216,00;0,0097
3215,00;0,0097
3214,00;0,0097
3213,00;0,0097
3212,00;0,0097
3211,00;0,0097
3210,00;0,0097
3209,00;0,0097
3208,00;0,0097
3207,00;0,0097
3206,00;0,0097
3205,00;0,0097
3204,00;0,0097
3203,00;0,0097
3202,00;0,0097
3201,00;0,0097
3200,00;0,0097
3199,00;0,0097
3198,00;0,0097
3197,00;0,0097
3196,00;0,0097
3195,00;0,0097
3194,00;0,0097
3193,00;0,0097
3192,00;0,0097
3191,00;0,0097
3190,00;0,0097
3189,00;0,0097
3188,00;0,0097
3187,00;0,0097
3186,00;0,0097
3185,00;0,0097
3184,00;0,0097
3183,00;0,0097
3182,00;0,0097
3181,00;0,0097
3180,00;0,0097
3179,00;0,0097
3178,00;0,0097
3177,00;0,0097
3176,00;0,0097
3175,00;0,0097
3174,00;0,0097
3173,00;0,0097
3172,00;0,0097
3171,00;0,0097
3170,00;0,0097
3169,00;0,0097
3168,00;0,0097
3167,00;0,0097
3166,00;0,0097
3165,00;0,0097
3164,00;0,0097
3163,00;0,0097
3162,00;0,0097
3161,00;0,0097
3160,00;0,0097
3159,00;0,0097
3158,00;0,0097
3157,00;0,0097
3156,00;0,0097
3155,00;0,0097
3154,00;0,0097
3153,00;0,0097
3152,00;0,0097
3151,00;0,0097
3150,00;0,0097
3149,00;0,0097
3148,00;0,0097
3147,00;0,0097
3146,00;0,0097
3145,00;0,0097
3144,00;0,0097
3143,00;0,0097
3142,00;0,0097
3141,00;0,0097
3140,00;0,0097
3139,00;0,0097
3138,00;0,0097
3137,00;0,0097
3136,00;0,0097
3135,00;0,0097
3134,00;0,0097
3133,00;0,0097
3132,00;0,0097
3131,00;0,0097
3130,00;0,0097
3129,00;0,0097
3128,00;0,0097
3127,00;0,0097
3126,00;0,0097
3125,00;0,0097
3124,00;0,0097
3123,00;0,0097
3122,00;0,0097
3121,00;0,0097
3120,00;0,0097
3119,00;0,0097
3118,00;0,0097
3117,00;0,0097
3116,00;0,0097
3115,00;0,0097
3114,00;0,0097
3113,00;0,0097
3112,00;0,0097
3111,00;0,0097
3110,00;0,0097
3109,00;0,0097
3108,00;0,0097
3107,00;0,0097
3106,00;0,0097
3105,00;0,0097
3104,00;0,0097
3103,00;0,0097
3102,00;0,0097
3101,00;0,0097
3100,00;0,0097
3099,00;0,0097
3098,00;0,0097
3097,00;0,0097
3096,00;0,0097
3095,00;0,0097
3094,00;0,0097
3093,00;0,0097
3092,00;0,0097
3091,00;0,0097
3090,00;0,0097
3089,00;0,0097
3088,00;0,0097
3087,00;0,0097
3086,00;0,0097
3085,00;0,0097
3084,00;0,0097
3083,00;0,0097
3082,00;0,0097
3081,00;0,0097
3080,00;0,0097
3079,00;0,0097
3078,00;0,0097
3077,00;0,0097
3076,00;0,0097
3075,00;0,0097
3074,00;0,0097
3073,00;0,0097
3072,00;0,0097
3071,00;0,0097
3070,00;0,0096
3069,00;0,0096
3068,00;0,0096
3067,00;0,0096
3066,00;0,0096
3065,00;0,0096
3064,00;0,0096
3063,00;0,0096
3062,00;0,0096
3061,00;0,0096
3060,00;0,0096
3059,00;0,0096
3058,00;0,0096
3057,00;0,0096
3056,00;0,0096
3055,00;0,0096
3054,00;0,0096
3053,00;0,0096
3052,00;0,0096
3051,00;0,0096
3050,00;0,0096
3049,00;0,0096
3048,00;0,0096
3047,00;0,0096
3046,00;0,0096
3045,00;0,0096
3044,00;0,0096
3043,00;0,0096
3042,00;0,0096
3041,00;0,0096
3040,00;0,0096
3039,00;0,0096
3038,00;0,0096
3037,00;0,0096
3036,00;0,0096
3035,00;0,0096
3034,00;0,0096
3033,00;0,0096
3032,00;0,0096
3031,00;0,0096
3030,00;0,0096
3029,00;0,0096
3028,00;0,0096
3027,00;0,0096
3026,00;0,0096
3025,00;0,0096
3024,00;0,0096
3023,00;0,0096
3022,00;0,0096
3021,00;0,0096
3020,00;0,0096
3019,00;0,0096
3018,00;0,0096
3017,00;0,0096
3016,00;0,0096
3015,00;0,0096
3014,00;0,0096
3013,00;0,0096
3012,00;0,0096
3011,00;0,0096
3010,00;0,0096
3009,00;0,0096
3008,00;0,0096
3007,00;0,0096
3006,00;0,0096
3005,00;0,0096
3004,00;0,0096
3003,00;0,0096
3002,00;0,0096
3001,00;0,0096
3000,00;0,0096
2999,00;0,0095
2998,00;0,0095
2997,00;0,0095
2996,00;0,0095
2995,00;0,0095
2994,00;0,0095
2993,00;0,0095
2992,00;0,0095
2991,00;0,0095
2990,00;0,0095
2989,00;0,0095
2988,00;0,0095
2987,00;0,0095
2986,00;0,0095
2985,00;0,0095
2984,00;0,0095
2983,00;0,0095
2982,00;0,0094
2981,00;0,0094
2980,00;0,0094
2979,00;0,0094
2978,00;0,0094
2977,00;0,0094
2976,00;0,0094
2975,00;0,0094
2974,00;0,0094
2973,00;0,0094
2972,00;0,0094
2971,00;0,0094
2970,00;0,0094
2969,00;0,0094
2968,00;0,0094
2967,00;0,0094
2966,00;0,0093
2965,00;0,0093
2964,00;0,0093
2963,00;0,0093
2962,00;0,0092
2961,00;0,0092
2960,00;0,0092
2959,00;0,0092
2958,00;0,0091
2957,00;0,0091
2956,00;0,0091
2955,00;0,0091
2954,00;0,0091
2953,00;0,0091
2952,00;0,0091
2951,00;0,0091
2950,00;0,0091
2949,00;0,0091
2948,00;0,0091
2947,00;0,0091
2946,00;0,0091
2945,00;0,0091
2944,00;0,0091
2943,00;0,0091
2942,00;0,0091
2941,00;0,0091
2940,00;0,0091
2939,00;0,0090
2938,00;0,0090
2937,00;0,0090
2936,00;0,0089
2935,00;0,0089
2934,00;0,0089
2933,00;0,0089
2932,00;0,0088
2931,00;0,0088
2930,00;0,0088
2929,00;0,0087
2928,00;0,0087
2927,00;0,0087
2926,00;0,0086
2925,00;0,0086
2924,00;0,0086
2923,00;0,0085
2922,00;0,0085
2921,00;0,0086
2920,00;0,0086
2919,00;0,0086
2918,00;0,0087
2917,00;0,0087
2916,00;0,0087
2915,00;0,0088
2914,00;0,0088
2913,00;0,0089
2912,00;0,0089
2911,00;0,0089
2910,00;0,0090
2909,00;0,0090
2908,00;0,0090
2907,00;0,0091
2906,00;0,0091
2905,00;0,0091
2904,00;0,0091
2903,00;0,0091
2902,00;0,0091
2901,00;0,0092
2900,00;0,0092
2899,00;0,0092
2898,00;0,0092
2897,00;0,0092
2896,00;0,0092
2895,00;0,0092
2894,00;0,0092
2893,00;0,0092
2892,00;0,0092
2891,00;0,0092
2890,00;0,0092
2889,00;0,0093
2888,00;0,0093
2887,00;0,0093
2886,00;0,0093
2885,00;0,0093
2884,00;0,0093
2883,00;0,0093
2882,00;0,0093
2881,00;0,0093
2880,00;0,0093
2879,00;0,0093
2878,00;0,0092
2877,00;0,0092
2876,00;0,0092
2875,00;0,0092
2874,00;0,0091
2873,00;0,0091
2872,00;0,0091
2871,00;0,0091
2870,00;0,0092
2869,00;0,0092
2868,00;0,0092
2867,00;0,0092
2866,00;0,0092
2865,00;0,0092
2864,00;0,0092
2863,00;0,0091
2862,00;0,0091
2861,00;0,0091
2860,00;0,0091
2859,00;0,0091
2858,00;0,0090
2857,00;0,0090
2856,00;0,0090
2855,00;0,0090
2854,00;0,0089
2853,00;0,0089
2852,00;0,0089
2851,00;0,0089
2850,00;0,0089
2849,00;0,0090
2848,00;0,0090
2847,00;0,0091
2846,00;0,0091
2845,00;0,0092
2844,00;0,0092
2843,00;0,0092
2842,00;0,0093
2841,00;0,0093
2840,00;0,0093
2839,00;0,0093
2838,00;0,0093
2837,00;0,0093
2836,00;0,0094
2835,00;0,0094
2834,00;0,0094
2833,00;0,0094
2832,00;0,0094
2831,00;0,0094
2830,00;0,0094
2829,00;0,0094
2828,00;0,0094
2827,00;0,0094
2826,00;0,0094
2825,00;0,0094
2824,00;0,0094
2823,00;0,0094
2822,00;0,0094
2821,00;0,0094
2820,00;0,0094
2819,00;0,0094
2818,00;0,0094
2817,00;0,0094
2816,00;0,0094
2815,00;0,0094
2814,00;0,0094
2813,00;0,0095
2812,00;0,0094
2811,00;0,0094
2810,00;0,0094
2809,00;0,0094
2808,00;0,0094
2807,00;0,0094
2806,00;0,0094
2805,00;0,0094
2804,00;0,0094
2803,00;0,0094
2802,00;0,0094
2801,00;0,0094
2800,00;0,0094
2799,00;0,0094
2798,00;0,0094
2797,00;0,0094
2796,00;0,0094
2795,00;0,0094
2794,00;0,0094
2793,00;0,0094
2792,00;0,0094
2791,00;0,0094
2790,00;0,0094
2789,00;0,0094
2788,00;0,0094
2787,00;0,0094
2786,00;0,0094
2785,00;0,0094
2784,00;0,0094
2783,00;0,0094
2782,00;0,0094
2781,00;0,0094
2780,00;0,0094
2779,00;0,0094
2778,00;0,0094
2777,00;0,0094
2776,00;0,0094
2775,00;0,0094
2774,00;0,0094
2773,00;0,0094
2772,00;0,0094
2771,00;0,0094
2770,00;0,0094
2769,00;0,0094
2768,00;0,0094
2767,00;0,0093
2766,00;0,0093
2765,00;0,0093
2764,00;0,0093
2763,00;0,0093
2762,00;0,0093
2761,00;0,0093
2760,00;0,0093
2759,00;0,0093
2758,00;0,0093
2757,00;0,0093
2756,00;0,0093
2755,00;0,0093
2754,00;0,0093
2753,00;0,0093
2752,00;0,0093
2751,00;0,0093
2750,00;0,0093
2749,00;0,0093
2748,00;0,0093
2747,00;0,0093
2746,00;0,0093
2745,00;0,0093
2744,00;0,0093
2743,00;0,0093
2742,00;0,0093
2741,00;0,0093
2740,00;0,0093
2739,00;0,0093
2738,00;0,0093
2737,00;0,0093
2736,00;0,0093
2735,00;0,0093
2734,00;0,0093
2733,00;0,0093
2732,00;0,0093
2731,00;0,0093
2730,00;0,0093
2729,00;0,0093
2728,00;0,0093
2727,00;0,0093
2726,00;0,0093
2725,00;0,0093
2724,00;0,0093
2723,00;0,0093
2722,00;0,0093
2721,00;0,0093
2720,00;0,0093
2719,00;0,0093
2718,00;0,0093
2717,00;0,0093
2716,00;0,0093
2715,00;0,0093
2714,00;0,0093
2713,00;0,0093
2712,00;0,0093
2711,00;0,0093
2710,00;0,0092
2709,00;0,0092
2708,00;0,0093
2707,00;0,0093
2706,00;0,0093
2705,00;0,0093
2704,00;0,0093
2703,00;0,0093
2702,00;0,0093
2701,00;0,0092
2700,00;0,0092
2699,00;0,0092
2698,00;0,0092
2697,00;0,0092
2696,00;0,0092
2695,00;0,0093
2694,00;0,0093
2693,00;0,0092
2692,00;0,0092
2691,00;0,0092
2690,00;0,0092
2689,00;0,0092
2688,00;0,0092
2687,00;0,0092
2686,00;0,0092
2685,00;0,0092
2684,00;0,0092
2683,00;0,0092
2682,00;0,0092
2681,00;0,0092
2680,00;0,0092
2679,00;0,0092
2678,00;0,0092
2677,00;0,0092
2676,00;0,0092
2675,00;0,0092
2674,00;0,0092
2673,00;0,0092
2672,00;0,0092
2671,00;0,0092
2670,00;0,0092
2669,00;0,0092
2668,00;0,0092
2667,00;0,0092
2666,00;0,0093
2665,00;0,0093
2664,00;0,0093
2663,00;0,0093
2662,00;0,0093
2661,00;0,0093
2660,00;0,0093
2659,00;0,0093
2658,00;0,0093
2657,00;0,0094
2656,00;0,0094
2655,00;0,0094
2654,00;0,0094
2653,00;0,0094
2652,00;0,0094
2651,00;0,0094
2650,00;0,0094
2649,00;0,0094
2648,00;0,0094
2647,00;0,0093
2646,00;0,0093
2645,00;0,0093
2644,00;0,0093
2643,00;0,0093
2642,00;0,0093
2641,00;0,0093
2640,00;0,0093
2639,00;0,0093
2638,00;0,0093
2637,00;0,0093
2636,00;0,0093
2635,00;0,0093
2634,00;0,0092
2633,00;0,0092
2632,00;0,0092
2631,00;0,0092
2630,00;0,0092
2629,00;0,0092
2628,00;0,0092
2627,00;0,0092
2626,00;0,0092
2625,00;0,0092
2624,00;0,0092
2623,00;0,0092
2622,00;0,0092
2621,00;0,0092
2620,00;0,0092
2619,00;0,0091
2618,00;0,0091
2617,00;0,0091
2616,00;0,0091
2615,00;0,0091
2614,00;0,0091
2613,00;0,0091
2612,00;0,0091
2611,00;0,0091
2610,00;0,0091
2609,00;0,0091
2608,00;0,0091
2607,00;0,0091
2606,00;0,0091
2605,00;0,0090
2604,00;0,0090
2603,00;0,0090
2602,00;0,0090
2601,00;0,0090
2600,00;0,0090
2599,00;0,0090
2598,00;0,0090
2597,00;0,0090
2596,00;0,0090
2595,00;0,0089
2594,00;0,0089
2593,00;0,0089
2592,00;0,0089
2591,00;0,0089
2590,00;0,0089
2589,00;0,0089
2588,00;0,0089
2587,00;0,0089
2586,00;0,0089
2585,00;0,0089
2584,00;0,0089
2583,00;0,0089
2582,00;0,0088
2581,00;0,0088
2580,00;0,0088
2579,00;0,0088
2578,00;0,0088
2577,00;0,0088
2576,00;0,0088
2575,00;0,0088
2574,00;0,0088
2573,00;0,0088
2572,00;0,0088
2571,00;0,0088
2570,00;0,0088
2569,00;0,0088
2568,00;0,0088
2567,00;0,0088
2566,00;0,0088
2565,00;0,0088
2564,00;0,0088
2563,00;0,0088
2562,00;0,0088
2561,00;0,0088
2560,00;0,0087
2559,00;0,0087
2558,00;0,0087
2557,00;0,0087
2556,00;0,0087
2555,00;0,0087
2554,00;0,0088
2553,00;0,0088
2552,00;0,0088
2551,00;0,0088
2550,00;0,0088
2549,00;0,0088
2548,00;0,0088
2547,00;0,0088
2546,00;0,0088
2545,00;0,0088
2544,00;0,0088
2543,00;0,0088
2542,00;0,0088
2541,00;0,0087
2540,00;0,0087
2539,00;0,0087
2538,00;0,0087
2537,00;0,0087
2536,00;0,0087
2535,00;0,0087
2534,00;0,0087
2533,00;0,0087
2532,00;0,0087
2531,00;0,0087
2530,00;0,0087
2529,00;0,0087
2528,00;0,0087
2527,00;0,0087
2526,00;0,0087
2525,00;0,0087
2524,00;0,0087
2523,00;0,0087
2522,00;0,0087
2521,00;0,0087
2520,00;0,0087
2519,00;0,0087
2518,00;0,0087
2517,00;0,0087
2516,00;0,0087
2515,00;0,0087
2514,00;0,0087
2513,00;0,0087
2512,00;0,0087
2511,00;0,0087
2510,00;0,0087
2509,00;0,0087
2508,00;0,0087
2507,00;0,0087
2506,00;0,0087
2505,00;0,0087
2504,00;0,0087
2503,00;0,0086
2502,00;0,0087
2501,00;0,0087
2500,00;0,0087
2499,00;0,0087
2498,00;0,0087
2497,00;0,0087
2496,00;0,0087
2495,00;0,0087
2494,00;0,0087
2493,00;0,0087
2492,00;0,0087
2491,00;0,0087
2490,00;0,0087
2489,00;0,0087
2488,00;0,0087
2487,00;0,0087
2486,00;0,0087
2485,00;0,0088
2484,00;0,0088
2483,00;0,0087
2482,00;0,0087
2481,00;0,0087
2480,00;0,0087
2479,00;0,0087
2478,00;0,0087
2477,00;0,0086
2476,00;0,0086
2475,00;0,0086
2474,00;0,0086
2473,00;0,0087
2472,00;0,0087
2471,00;0,0087
2470,00;0,0087
2469,00;0,0087
2468,00;0,0087
2467,00;0,0087
2466,00;0,0087
2465,00;0,0087
2464,00;0,0087
2463,00;0,0087
2462,00;0,0087
2461,00;0,0087
2460,00;0,0087
2459,00;0,0087
2458,00;0,0087
2457,00;0,0087
2456,00;0,0087
2455,00;0,0087
2454,00;0,0087
2453,00;0,0087
2452,00;0,0087
2451,00;0,0087
2450,00;0,0087
2449,00;0,0087
2448,00;0,0087
2447,00;0,0087
2446,00;0,0087
2445,00;0,0087
2444,00;0,0087
2443,00;0,0087
2442,00;0,0087
2441,00;0,0087
2440,00;0,0087
2439,00;0,0086
2438,00;0,0086
2437,00;0,0086
2436,00;0,0086
2435,00;0,0086
2434,00;0,0086
2433,00;0,0086
2432,00;0,0086
2431,00;0,0087
2430,00;0,0087
2429,00;0,0087
2428,00;0,0087
2427,00;0,0087
2426,00;0,0087
2425,00;0,0086
2424,00;0,0087
2423,00;0,0087
2422,00;0,0087
2421,00;0,0087
2420,00;0,0086
2419,00;0,0086
2418,00;0,0086
2417,00;0,0086
2416,00;0,0086
2415,00;0,0087
2414,00;0,0087
2413,00;0,0087
2412,00;0,0087
2411,00;0,0087
2410,00;0,0087
2409,00;0,0087
2408,00;0,0087
2407,00;0,0086
2406,00;0,0086
2405,00;0,0086
2404,00;0,0086
2403,00;0,0086
2402,00;0,0086
2401,00;0,0087
2400,00;0,0087
2399,00;0,0087
2398,00;0,0087
2397,00;0,0087
2396,00;0,0087
2395,00;0,0087
2394,00;0,0087
2393,00;0,0087
2392,00;0,0087
2391,00;0,0088
2390,00;0,0088
2389,00;0,0088
2388,00;0,0089
2387,00;0,0090
2386,00;0,0091
2385,00;0,0093
2384,00;0,0094
2383,00;0,0095
2382,00;0,0096
2381,00;0,0097
2380,00;0,0097
2379,00;0,0097
2378,00;0,0097
2377,00;0,0097
2376,00;0,0098
2375,00;0,0099
2374,00;0,0100
2373,00;0,0100
2372,00;0,0101
2371,00;0,0101
2370,00;0,0102
2369,00;0,0102
2368,00;0,0102
2367,00;0,0103
2366,00;0,0104
2365,00;0,0105
2364,00;0,0106
2363,00;0,0107
2362,00;0,0107
2361,00;0,0107
2360,00;0,0108
2359,00;0,0108
2358,00;0,0109
2357,00;0,0109
2356,00;0,0109
2355,00;0,0110
2354,00;0,0110
2353,00;0,0111
2352,00;0,0111
2351,00;0,0112
2350,00;0,0112
2349,00;0,0113
2348,00;0,0113
2347,00;0,0114
2346,00;0,0114
2345,00;0,0116
2344,00;0,0117
2343,00;0,0117
2342,00;0,0117
2341,00;0,0117
2340,00;0,0116
2339,00;0,0116
2338,00;0,0115
2337,00;0,0116
2336,00;0,0116
2335,00;0,0116
2334,00;0,0116
2333,00;0,0117
2332,00;0,0116
2331,00;0,0116
2330,00;0,0116
2329,00;0,0116
2328,00;0,0116
2327,00;0,0117
2326,00;0,0118
2325,00;0,0118
2324,00;0,0118
2323,00;0,0117
2322,00;0,0116
2321,00;0,0115
2320,00;0,0114
2319,00;0,0113
2318,00;0,0113
2317,00;0,0112
2316,00;0,0112
2315,00;0,0112
2314,00;0,0112
2313,00;0,0112
2312,00;0,0112
2311,00;0,0111
2310,00;0,0111
2309,00;0,0110
2308,00;0,0108
2307,00;0,0107
2306,00;0,0106
2305,00;0,0105
2304,00;0,0105
2303,00;0,0105
2302,00;0,0105
2301,00;0,0104
2300,00;0,0104
2299,00;0,0103
2298,00;0,0102
2297,00;0,0101
2296,00;0,0101
2295,00;0,0100
2294,00;0,0100
2293,00;0,0099
2292,00;0,0099
2291,00;0,0099
2290,00;0,0099
2289,00;0,0098
2288,00;0,0098
2287,00;0,0097
2286,00;0,0097
2285,00;0,0096
2284,00;0,0096
2283,00;0,0096
2282,00;0,0095
2281,00;0,0095
2280,00;0,0094
2279,00;0,0094
2278,00;0,0094
2277,00;0,0093
2276,00;0,0093
2275,00;0,0093
2274,00;0,0093
2273,00;0,0093
2272,00;0,0093
2271,00;0,0092
2270,00;0,0091
2269,00;0,0091
2268,00;0,0091
2267,00;0,0090
2266,00;0,0090
2265,00;0,0090
2264,00;0,0090
2263,00;0,0090
2262,00;0,0090
2261,00;0,0090
2260,00;0,0090
2259,00;0,0090
2258,00;0,0090
2257,00;0,0090
2256,00;0,0090
2255,00;0,0090
2254,00;0,0089
2253,00;0,0089
2252,00;0,0089
2251,00;0,0089
2250,00;0,0089
2249,00;0,0089
2248,00;0,0089
2247,00;0,0089
2246,00;0,0089
2245,00;0,0088
2244,00;0,0088
2243,00;0,0088
2242,00;0,0088
2241,00;0,0088
2240,00;0,0088
2239,00;0,0088
2238,00;0,0088
2237,00;0,0088
2236,00;0,0088
2235,00;0,0088
2234,00;0,0088
2233,00;0,0088
2232,00;0,0088
2231,00;0,0088
2230,00;0,0088
2229,00;0,0088
2228,00;0,0087
2227,00;0,0087
2226,00;0,0087
2225,00;0,0087
2224,00;0,0087
2223,00;0,0087
2222,00;0,0087
2221,00;0,0087
2220,00;0,0087
2219,00;0,0087
2218,00;0,0087
2217,00;0,0087
2216,00;0,0087
2215,00;0,0087
2214,00;0,0087
2213,00;0,0087
2212,00;0,0086
2211,00;0,0086
2210,00;0,0086
2209,00;0,0086
2208,00;0,0086
2207,00;0,0086
2206,00;0,0086
2205,00;0,0086
2204,00;0,0086
2203,00;0,0086
2202,00;0,0086
2201,00;0,0086
2200,00;0,0086
2199,00;0,0086
2198,00;0,0086
2197,00;0,0086
2196,00;0,0086
2195,00;0,0086
2194,00;0,0086
2193,00;0,0086
2192,00;0,0086
2191,00;0,0086
2190,00;0,0086
2189,00;0,0086
2188,00;0,0086
2187,00;0,0086
2186,00;0,0086
2185,00;0,0085
2184,00;0,0085
2183,00;0,0085
2182,00;0,0085
2181,00;0,0085
2180,00;0,0086
2179,00;0,0086
2178,00;0,0085
2177,00;0,0085
2176,00;0,0084
2175,00;0,0084
2174,00;0,0085
2173,00;0,0085
2172,00;0,0085
2171,00;0,0085
2170,00;0,0086
2169,00;0,0087
2168,00;0,0087
2167,00;0,0088
2166,00;0,0087
2165,00;0,0087
2164,00;0,0087
2163,00;0,0088
2162,00;0,0088
2161,00;0,0087
2160,00;0,0084
2159,00;0,0081
2158,00;0,0078
2157,00;0,0076
2156,00;0,0075
2155,00;0,0075
2154,00;0,0075
2153,00;0,0075
2152,00;0,0076
2151,00;0,0077
2150,00;0,0078
2149,00;0,0078
2148,00;0,0078
2147,00;0,0079
2146,00;0,0079
2145,00;0,0079
2144,00;0,0079
2143,00;0,0079
2142,00;0,0078
2141,00;0,0078
2140,00;0,0078
2139,00;0,0078
2138,00;0,0078
2137,00;0,0078
2136,00;0,0077
2135,00;0,0077
2134,00;0,0076
2133,00;0,0076
2132,00;0,0076
2131,00;0,0077
2130,00;0,0077
2129,00;0,0078
2128,00;0,0079
2127,00;0,0079
2126,00;0,0080
2125,00;0,0081
2124,00;0,0081
2123,00;0,0081
2122,00;0,0081
2121,00;0,0081
2120,00;0,0081
2119,00;0,0082
2118,00;0,0082
2117,00;0,0083
2116,00;0,0083
2115,00;0,0084
2114,00;0,0084
2113,00;0,0084
2112,00;0,0084
2111,00;0,0085
2110,00;0,0085
2109,00;0,0085
2108,00;0,0084
2107,00;0,0084
2106,00;0,0084
2105,00;0,0084
2104,00;0,0084
2103,00;0,0084
2102,00;0,0084
2101,00;0,0084
2100,00;0,0084
2099,00;0,0084
2098,00;0,0083
2097,00;0,0083
2096,00;0,0083
2095,00;0,0083
2094,00;0,0083
2093,00;0,0083
2092,00;0,0083
2091,00;0,0083
2090,00;0,0084
2089,00;0,0084
2088,00;0,0084
2087,00;0,0084
2086,00;0,0084
2085,00;0,0084
2084,00;0,0084
2083,00;0,0084
2082,00;0,0084
2081,00;0,0084
2080,00;0,0084
2079,00;0,0084
2078,00;0,0084
2077,00;0,0084
2076,00;0,0084
2075,00;0,0084
2074,00;0,0084
2073,00;0,0084
2072,00;0,0084
2071,00;0,0084
2070,00;0,0084
2069,00;0,0084
2068,00;0,0084
2067,00;0,0084
2066,00;0,0084
2065,00;0,0084
2064,00;0,0084
2063,00;0,0084
2062,00;0,0084
2061,00;0,0084
2060,00;0,0084
2059,00;0,0084
2058,00;0,0084
2057,00;0,0084
2056,00;0,0084
2055,00;0,0084
2054,00;0,0083
2053,00;0,0084
2052,00;0,0084
2051,00;0,0084
2050,00;0,0084
2049,00;0,0084
2048,00;0,0083
2047,00;0,0083
2046,00;0,0083
2045,00;0,0083
2044,00;0,0083
2043,00;0,0083
2042,00;0,0083
2041,00;0,0083
2040,00;0,0083
2039,00;0,0083
2038,00;0,0082
2037,00;0,0082
2036,00;0,0082
2035,00;0,0082
2034,00;0,0082
2033,00;0,0081
2032,00;0,0081
2031,00;0,0081
2030,00;0,0081
2029,00;0,0081
2028,00;0,0081
2027,00;0,0081
2026,00;0,0081
2025,00;0,0081
2024,00;0,0080
2023,00;0,0080
2022,00;0,0080
2021,00;0,0080
2020,00;0,0081
2019,00;0,0081
2018,00;0,0081
2017,00;0,0081
2016,00;0,0081
2015,00;0,0081
2014,00;0,0081
2013,00;0,0081
2012,00;0,0081
2011,00;0,0081
2010,00;0,0081
2009,00;0,0081
2008,00;0,0081
2007,00;0,0081
2006,00;0,0080
2005,00;0,0079
2004,00;0,0079
2003,00;0,0079
2002,00;0,0079
2001,00;0,0079
2000,00;0,0080
1999,00;0,0080
1998,00;0,0080
1997,00;0,0081
1996,00;0,0081
1995,00;0,0081
1994,00;0,0081
1993,00;0,0081
1992,00;0,0082
1991,00;0,0082
1990,00;0,0082
1989,00;0,0081
1988,00;0,0080
1987,00;0,0080
1986,00;0,0081
1985,00;0,0082
1984,00;0,0083
1983,00;0,0083
1982,00;0,0084
1981,00;0,0084
1980,00;0,0084
1979,00;0,0083
1978,00;0,0082
1977,00;0,0081
1976,00;0,0080
1975,00;0,0079
1974,00;0,0079
1973,00;0,0079
1972,00;0,0079
1971,00;0,0078
1970,00;0,0078
1969,00;0,0077
1968,00;0,0077
1967,00;0,0077
1966,00;0,0078
1965,00;0,0078
1964,00;0,0078
1963,00;0,0078
1962,00;0,0078
1961,00;0,0077
1960,00;0,0076
1959,00;0,0076
1958,00;0,0075
1957,00;0,0075
1956,00;0,0076
1955,00;0,0076
1954,00;0,0077
1953,00;0,0078
1952,00;0,0078
1951,00;0,0079
1950,00;0,0079
1949,00;0,0079
1948,00;0,0079
1947,00;0,0079
1946,00;0,0079
1945,00;0,0078
1944,00;0,0077
1943,00;0,0077
1942,00;0,0077
1941,00;0,0077
1940,00;0,0077
1939,00;0,0077
1938,00;0,0077
1937,00;0,0077
1936,00;0,0077
1935,00;0,0078
1934,00;0,0078
1933,00;0,0078
1932,00;0,0077
1931,00;0,0077
1930,00;0,0077
1929,00;0,0077
1928,00;0,0077
1927,00;0,0077
1926,00;0,0077
1925,00;0,0077
1924,00;0,0078
1923,00;0,0078
1922,00;0,0078
1921,00;0,0078
1920,00;0,0078
1919,00;0,0078
1918,00;0,0078
1917,00;0,0078
1916,00;0,0078
1915,00;0,0078
1914,00;0,0078
1913,00;0,0078
1912,00;0,0078
1911,00;0,0078
1910,00;0,0078
1909,00;0,0078
1908,00;0,0078
1907,00;0,0078
1906,00;0,0078
1905,00;0,0078
1904,00;0,0078
1903,00;0,0078
1902,00;0,0078
1901,00;0,0078
1900,00;0,0078
1899,00;0,0078
1898,00;0,0078
1897,00;0,0078
1896,00;0,0078
1895,00;0,0078
1894,00;0,0078
1893,00;0,0078
1892,00;0,0078
1891,00;0,0078
1890,00;0,0078
1889,00;0,0078
1888,00;0,0077
1887,00;0,0077
1886,00;0,0077
1885,00;0,0077
1884,00;0,0077
1883,00;0,0077
1882,00;0,0077
1881,00;0,0077
1880,00;0,0077
1879,00;0,0077
1878,00;0,0078
1877,00;0,0078
1876,00;0,0078
1875,00;0,0078
1874,00;0,0078
1873,00;0,0077
1872,00;0,0077
1871,00;0,0077
1870,00;0,0077
1869,00;0,0077
1868,00;0,0077
1867,00;0,0077
1866,00;0,0077
1865,00;0,0078
1864,00;0,0078
1863,00;0,0078
1862,00;0,0077
1861,00;0,0077
1860,00;0,0077
1859,00;0,0077
1858,00;0,0077
1857,00;0,0077
1856,00;0,0077
1855,00;0,0077
1854,00;0,0077
1853,00;0,0077
1852,00;0,0077
1851,00;0,0077
1850,00;0,0077
1849,00;0,0077
1848,00;0,0077
1847,00;0,0077
1846,00;0,0077
1845,00;0,0077
1844,00;0,0077
1843,00;0,0077
1842,00;0,0077
1841,00;0,0077
1840,00;0,0077
1839,00;0,0077
1838,00;0,0077
1837,00;0,0077
1836,00;0,0077
1835,00;0,0077
1834,00;0,0077
1833,00;0,0077
1832,00;0,0077
1831,00;0,0077
1830,00;0,0077
1829,00;0,0077
1828,00;0,0077
1827,00;0,0077
1826,00;0,0077
1825,00;0,0078
1824,00;0,0078
1823,00;0,0078
1822,00;0,0078
1821,00;0,0077
1820,00;0,0077
1819,00;0,0077
1818,00;0,0077
1817,00;0,0077
1816,00;0,0077
1815,00;0,0077
1814,00;0,0077
1813,00;0,0078
1812,00;0,0078
1811,00;0,0078
1810,00;0,0078
1809,00;0,0078
1808,00;0,0078
1807,00;0,0078
1806,00;0,0078
1805,00;0,0078
1804,00;0,0078
1803,00;0,0078
1802,00;0,0078
1801,00;0,0078
1800,00;0,0078
1799,00;0,0078
1798,00;0,0078
1797,00;0,0078
1796,00;0,0078
1795,00;0,0078
1794,00;0,0078
1793,00;0,0078
1792,00;0,0079
1791,00;0,0079
1790,00;0,0079
1789,00;0,0079
1788,00;0,0079
1787,00;0,0079
1786,00;0,0079
1785,00;0,0079
1784,00;0,0079
1783,00;0,0079
1782,00;0,0079
1781,00;0,0079
1780,00;0,0079
1779,00;0,0079
1778,00;0,0079
1777,00;0,0079
1776,00;0,0079
1775,00;0,0079
1774,00;0,0078
1773,00;0,0078
1772,00;0,0078
1771,00;0,0079
1770,00;0,0079
1769,00;0,0079
1768,00;0,0079
1767,00;0,0079
1766,00;0,0079
1765,00;0,0079
1764,00;0,0079
1763,00;0,0079
1762,00;0,0079
1761,00;0,0079
1760,00;0,0079
1759,00;0,0079
1758,00;0,0078
1757,00;0,0078
1756,00;0,0078
1755,00;0,0078
1754,00;0,0078
1753,00;0,0078
1752,00;0,0078
1751,00;0,0077
1750,00;0,0077
1749,00;0,0077
1748,00;0,0077
1747,00;0,0077
1746,00;0,0077
1745,00;0,0077
1744,00;0,0077
1743,00;0,0077
1742,00;0,0077
1741,00;0,0077
1740,00;0,0077
1739,00;0,0078
1738,00;0,0078
1737,00;0,0078
1736,00;0,0078
1735,00;0,0078
1734,00;0,0078
1733,00;0,0078
1732,00;0,0078
1731,00;0,0077
1730,00;0,0077
1729,00;0,0077
1728,00;0,0077
1727,00;0,0076
1726,00;0,0076
1725,00;0,0076
1724,00;0,0077
1723,00;0,0077
1722,00;0,0077
1721,00;0,0078
1720,00;0,0078
1719,00;0,0079
1718,00;0,0080
1717,00;0,0081
1716,00;0,0081
1715,00;0,0081
1714,00;0,0082
1713,00;0,0082
1712,00;0,0082
1711,00;0,0082
1710,00;0,0083
1709,00;0,0083
1708,00;0,0083
1707,00;0,0083
1706,00;0,0084
1705,00;0,0084
1704,00;0,0084
1703,00;0,0084
1702,00;0,0085
1701,00;0,0085
1700,00;0,0085
1699,00;0,0085
1698,00;0,0085
1697,00;0,0085
1696,00;0,0085
1695,00;0,0086
1694,00;0,0086
1693,00;0,0086
1692,00;0,0086
1691,00;0,0086
1690,00;0,0086
1689,00;0,0086
1688,00;0,0086
1687,00;0,0086
1686,00;0,0086
1685,00;0,0086
1684,00;0,0086
1683,00;0,0087
1682,00;0,0087
1681,00;0,0087
1680,00;0,0087
1679,00;0,0088
1678,00;0,0088
1677,00;0,0089
1676,00;0,0089
1675,00;0,0090
1674,00;0,0090
1673,00;0,0090
1672,00;0,0090
1671,00;0,0091
1670,00;0,0091
1669,00;0,0092
1668,00;0,0093
1667,00;0,0093
1666,00;0,0093
1665,00;0,0094
1664,00;0,0095
1663,00;0,0095
1662,00;0,0096
1661,00;0,0097
1660,00;0,0097
1659,00;0,0098
1658,00;0,0098
1657,00;0,0099
1656,00;0,0100
1655,00;0,0100
1654,00;0,0101
1653,00;0,0102
1652,00;0,0102
1651,00;0,0103
1650,00;0,0103
1649,00;0,0103
1648,00;0,0103
1647,00;0,0104
1646,00;0,0105
1645,00;0,0105
1644,00;0,0105
1643,00;0,0106
1642,00;0,0106
1641,00;0,0106
1640,00;0,0107
1639,00;0,0107
1638,00;0,0107
1637,00;0,0107
1636,00;0,0108
1635,00;0,0108
1634,00;0,0108
1633,00;0,0108
1632,00;0,0108
1631,00;0,0109
1630,00;0,0109
1629,00;0,0109
1628,00;0,0110
1627,00;0,0110
1626,00;0,0110
1625,00;0,0110
1624,00;0,0110
1623,00;0,0110
1622,00;0,0110
1621,00;0,0110
1620,00;0,0111
1619,00;0,0111
1618,00;0,0111
1617,00;0,0111
1616,00;0,0111
1615,00;0,0111
1614,00;0,0111
1613,00;0,0111
1612,00;0,0111
1611,00;0,0111
1610,00;0,0111
1609,00;0,0112
1608,00;0,0112
1607,00;0,0112
1606,00;0,0112
1605,00;0,0112
1604,00;0,0112
1603,00;0,0112
1602,00;0,0112
1601,00;0,0112
1600,00;0,0112
1599,00;0,0112
1598,00;0,0112
1597,00;0,0112
1596,00;0,0112
1595,00;0,0112
1594,00;0,0111
1593,00;0,0111
1592,00;0,0111
1591,00;0,0111
1590,00;0,0111
1589,00;0,0111
1588,00;0,0111
1587,00;0,0111
1586,00;0,0111
1585,00;0,0111
1584,00;0,0111
1583,00;0,0111
1582,00;0,0111
1581,00;0,0111
1580,00;0,0111
1579,00;0,0111
1578,00;0,0111
1577,00;0,0111
1576,00;0,0111
1575,00;0,0111
1574,00;0,0111
1573,00;0,0111
1572,00;0,0111
1571,00;0,0111
1570,00;0,0111
1569,00;0,0111
1568,00;0,0111
1567,00;0,0111
1566,00;0,0111
1565,00;0,0112
1564,00;0,0112
1563,00;0,0112
1562,00;0,0112
1561,00;0,0112
1560,00;0,0112
1559,00;0,0112
1558,00;0,0112
1557,00;0,0112
1556,00;0,0112
1555,00;0,0112
1554,00;0,0112
1553,00;0,0112
1552,00;0,0112
1551,00;0,0112
1550,00;0,0112
1549,00;0,0112
1548,00;0,0112
1547,00;0,0112
1546,00;0,0112
1545,00;0,0112
1544,00;0,0112
1543,00;0,0112
1542,00;0,0112
1541,00;0,0112
1540,00;0,0112
1539,00;0,0112
1538,00;0,0112
1537,00;0,0112
1536,00;0,0112
1535,00;0,0113
1534,00;0,0113
1533,00;0,0113
1532,00;0,0113
1531,00;0,0112
1530,00;0,0112
1529,00;0,0112
1528,00;0,0112
1527,00;0,0112
1526,00;0,0112
1525,00;0,0112
1524,00;0,0112
1523,00;0,0112
1522,00;0,0111
1521,00;0,0111
1520,00;0,0111
1519,00;0,0111
1518,00;0,0110
1517,00;0,0110
1516,00;0,0110
1515,00;0,0109
1514,00;0,0109
1513,00;0,0109
1512,00;0,0109
1511,00;0,0109
1510,00;0,0109
1509,00;0,0109
1508,00;0,0108
1507,00;0,0108
1506,00;0,0108
1505,00;0,0107
1504,00;0,0107
1503,00;0,0106
1502,00;0,0106
1501,00;0,0106
1500,00;0,0106
1499,00;0,0106
1498,00;0,0106
1497,00;0,0106
1496,00;0,0105
1495,00;0,0105
1494,00;0,0105
1493,00;0,0105
1492,00;0,0104
1491,00;0,0104
1490,00;0,0104
1489,00;0,0103
1488,00;0,0103
1487,00;0,0103
1486,00;0,0103
1485,00;0,0103
1484,00;0,0103
1483,00;0,0102
1482,00;0,0102
1481,00;0,0102
1480,00;0,0102
1479,00;0,0102
1478,00;0,0102
1477,00;0,0102
1476,00;0,0102
1475,00;0,0102
1474,00;0,0102
1473,00;0,0101
1472,00;0,0101
1471,00;0,0101
1470,00;0,0100
1469,00;0,0100
1468,00;0,0099
1467,00;0,0099
1466,00;0,0099
1465,00;0,0099
1464,00;0,0099
1463,00;0,0099
1462,00;0,0099
1461,00;0,0100
1460,00;0,0100
1459,00;0,0100
1458,00;0,0100
1457,00;0,0101
1456,00;0,0101
1455,00;0,0102
1454,00;0,0103
1453,00;0,0103
1452,00;0,0104
1451,00;0,0105
1450,00;0,0106
1449,00;0,0106
1448,00;0,0107
1447,00;0,0108
1446,00;0,0108
1445,00;0,0109
1444,00;0,0110
1443,00;0,0110
1442,00;0,0111
1441,00;0,0111
1440,00;0,0112
1439,00;0,0112
1438,00;0,0112
1437,00;0,0112
1436,00;0,0111
1435,00;0,0111
1434,00;0,0110
1433,00;0,0110
1432,00;0,0110
1431,00;0,0110
1430,00;0,0109
1429,00;0,0109
1428,00;0,0109
1427,00;0,0108
1426,00;0,0108
1425,00;0,0108
1424,00;0,0108
1423,00;0,0108
1422,00;0,0108
1421,00;0,0108
1420,00;0,0107
1419,00;0,0107
1418,00;0,0106
1417,00;0,0106
1416,00;0,0106
1415,00;0,0106
1414,00;0,0106
1413,00;0,0106
1412,00;0,0106
1411,00;0,0105
1410,00;0,0105
1409,00;0,0105
1408,00;0,0105
1407,00;0,0105
1406,00;0,0104
1405,00;0,0104
1404,00;0,0104
1403,00;0,0104
1402,00;0,0104
1401,00;0,0104
1400,00;0,0104
1399,00;0,0103
1398,00;0,0103
1397,00;0,0103
1396,00;0,0103
1395,00;0,0103
1394,00;0,0102
1393,00;0,0102
1392,00;0,0102
1391,00;0,0102
1390,00;0,0102
1389,00;0,0101
1388,00;0,0101
1387,00;0,0101
1386,00;0,0101
1385,00;0,0101
1384,00;0,0101
1383,00;0,0100
1382,00;0,0100
1381,00;0,0100
1380,00;0,0100
1379,00;0,0100
1378,00;0,0099
1377,00;0,0099
1376,00;0,0099
1375,00;0,0099
1374,00;0,0099
1373,00;0,0098
1372,00;0,0098
1371,00;0,0098
1370,00;0,0098
1369,00;0,0097
1368,00;0,0097
1367,00;0,0097
1366,00;0,0097
1365,00;0,0097
1364,00;0,0096
1363,00;0,0096
1362,00;0,0096
1361,00;0,0096
1360,00;0,0096
1359,00;0,0095
1358,00;0,0095
1357,00;0,0095
1356,00;0,0095
1355,00;0,0095
1354,00;0,0094
1353,00;0,0094
1352,00;0,0094
1351,00;0,0094
1350,00;0,0094
1349,00;0,0093
1348,00;0,0093
1347,00;0,0093
1346,00;0,0092
1345,00;0,0092
1344,00;0,0092
1343,00;0,0092
1342,00;0,0092
1341,00;0,0091
1340,00;0,0091
1339,00;0,0091
1338,00;0,0091
1337,00;0,0091
1336,00;0,0090
1335,00;0,0090
1334,00;0,0090
1333,00;0,0089
1332,00;0,0089
1331,00;0,0089
1330,00;0,0089
1329,00;0,0089
1328,00;0,0088
1327,00;0,0088
1326,00;0,0088
1325,00;0,0088
1324,00;0,0088
1323,00;0,0087
1322,00;0,0087
1321,00;0,0087
1320,00;0,0087
1319,00;0,0087
1318,00;0,0087
1317,00;0,0087
1316,00;0,0087
1315,00;0,0087
1314,00;0,0086
1313,00;0,0086
1312,00;0,0086
1311,00;0,0086
1310,00;0,0086
1309,00;0,0085
1308,00;0,0085
1307,00;0,0085
1306,00;0,0085
1305,00;0,0085
1304,00;0,0085
1303,00;0,0084
1302,00;0,0084
1301,00;0,0084
1300,00;0,0084
1299,00;0,0083
1298,00;0,0083
1297,00;0,0083
1296,00;0,0083
1295,00;0,0083
1294,00;0,0083
1293,00;0,0083
1292,00;0,0082
1291,00;0,0082
1290,00;0,0082
1289,00;0,0082
1288,00;0,0082
1287,00;0,0081
1286,00;0,0081
1285,00;0,0081
1284,00;0,0080
1283,00;0,0080
1282,00;0,0079
1281,00;0,0079
1280,00;0,0078
1279,00;0,0078
1278,00;0,0078
1277,00;0,0077
1276,00;0,0077
1275,00;0,0077
1274,00;0,0077
1273,00;0,0077
1272,00;0,0077
1271,00;0,0076
1270,00;0,0076
1269,00;0,0076
1268,00;0,0076
1267,00;0,0076
1266,00;0,0076
1265,00;0,0077
1264,00;0,0077
1263,00;0,0078
1262,00;0,0078
1261,00;0,0079
1260,00;0,0079
1259,00;0,0080
1258,00;0,0080
1257,00;0,0080
1256,00;0,0080
1255,00;0,0080
1254,00;0,0080
1253,00;0,0080
1252,00;0,0081
1251,00;0,0081
1250,00;0,0081
1249,00;0,0081
1248,00;0,0081
1247,00;0,0082
1246,00;0,0082
1245,00;0,0082
1244,00;0,0083
1243,00;0,0084
1242,00;0,0084
1241,00;0,0085
1240,00;0,0085
1239,00;0,0086
1238,00;0,0086
1237,00;0,0086
1236,00;0,0087
1235,00;0,0087
1234,00;0,0088
1233,00;0,0088
1232,00;0,0089
1231,00;0,0089
1230,00;0,0089
1229,00;0,0090
1228,00;0,0090
1227,00;0,0090
1226,00;0,0091
1225,00;0,0091
1224,00;0,0092
1223,00;0,0092
1222,00;0,0092
1221,00;0,0092
1220,00;0,0092
1219,00;0,0092
1218,00;0,0093
1217,00;0,0093
1216,00;0,0093
1215,00;0,0094
1214,00;0,0094
1213,00;0,0094
1212,00;0,0094
1211,00;0,0095
1210,00;0,0095
1209,00;0,0095
1208,00;0,0096
1207,00;0,0096
1206,00;0,0096
1205,00;0,0096
1204,00;0,0096
1203,00;0,0097
1202,00;0,0097
1201,00;0,0097
1200,00;0,0097
1199,00;0,0098
1198,00;0,0098
1197,00;0,0098
1196,00;0,0099
1195,00;0,0099
1194,00;0,0099
1193,00;0,0099
1192,00;0,0099
1191,00;0,0099
1190,00;0,0099
1189,00;0,0100
1188,00;0,0100
1187,00;0,0100
1186,00;0,0100
1185,00;0,0101
1184,00;0,0101
1183,00;0,0101
1182,00;0,0101
1181,00;0,0102
1180,00;0,0102
1179,00;0,0102
1178,00;0,0102
1177,00;0,0103
1176,00;0,0103
1175,00;0,0103
1174,00;0,0103
1173,00;0,0103
1172,00;0,0104
1171,00;0,0104
1170,00;0,0104
1169,00;0,0105
1168,00;0,0105
1167,00;0,0105
1166,00;0,0106
1165,00;0,0106
1164,00;0,0106
1163,00;0,0106
1162,00;0,0107
1161,00;0,0107
1160,00;0,0108
1159,00;0,0108
1158,00;0,0109
1157,00;0,0109
1156,00;0,0109
1155,00;0,0110
1154,00;0,0111
1153,00;0,0111
1152,00;0,0112
1151,00;0,0112
1150,00;0,0112
1149,00;0,0113
1148,00;0,0113
1147,00;0,0114
1146,00;0,0115
1145,00;0,0115
1144,00;0,0115
1143,00;0,0115
1142,00;0,0116
1141,00;0,0116
1140,00;0,0116
1139,00;0,0116
1138,00;0,0117
1137,00;0,0117
1136,00;0,0118
1135,00;0,0118
1134,00;0,0118
1133,00;0,0117
1132,00;0,0117
1131,00;0,0116
1130,00;0,0116
1129,00;0,0116
1128,00;0,0115
1127,00;0,0115
1126,00;0,0114
1125,00;0,0114
1124,00;0,0113
1123,00;0,0112
1122,00;0,0112
1121,00;0,0111
1120,00;0,0111
1119,00;0,0111
1118,00;0,0110
1117,00;0,0110
1116,00;0,0109
1115,00;0,0109
1114,00;0,0109
1113,00;0,0108
1112,00;0,0108
1111,00;0,0107
1110,00;0,0107
1109,00;0,0107
1108,00;0,0107
1107,00;0,0106
1106,00;0,0106
1105,00;0,0105
1104,00;0,0105
1103,00;0,0104
1102,00;0,0104
1101,00;0,0103
1100,00;0,0103
1099,00;0,0103
1098,00;0,0103
1097,00;0,0104
1096,00;0,0104
1095,00;0,0103
1094,00;0,0103
1093,00;0,0103
1092,00;0,0102
1091,00;0,0102
1090,00;0,0102
1089,00;0,0101
1088,00;0,0101
1087,00;0,0101
1086,00;0,0101
1085,00;0,0100
1084,00;0,0100
1083,00;0,0099
1082,00;0,0099
1081,00;0,0099
1080,00;0,0099
1079,00;0,0099
1078,00;0,0098
1077,00;0,0098
1076,00;0,0098
1075,00;0,0097
1074,00;0,0097
1073,00;0,0097
1072,00;0,0097
1071,00;0,0096
1070,00;0,0096
1069,00;0,0096
1068,00;0,0096
1067,00;0,0096
1066,00;0,0095
1065,00;0,0095
1064,00;0,0095
1063,00;0,0095
1062,00;0,0094
1061,00;0,0094
1060,00;0,0094
1059,00;0,0094
1058,00;0,0094
1057,00;0,0093
1056,00;0,0093
1055,00;0,0093
1054,00;0,0093
1053,00;0,0093
1052,00;0,0092
1051,00;0,0092
1050,00;0,0092
1049,00;0,0092
1048,00;0,0091
1047,00;0,0091
1046,00;0,0091
1045,00;0,0091
1044,00;0,0090
1043,00;0,0090
1042,00;0,0090
1041,00;0,0090
1040,00;0,0090
1039,00;0,0090
1038,00;0,0090
1037,00;0,0089
1036,00;0,0089
1035,00;0,0089
1034,00;0,0089
1033,00;0,0088
1032,00;0,0088
1031,00;0,0088
1030,00;0,0088
1029,00;0,0088
1028,00;0,0088
1027,00;0,0088
1026,00;0,0088
1025,00;0,0087
1024,00;0,0087
1023,00;0,0087
1022,00;0,0087
1021,00;0,0086
1020,00;0,0086
1019,00;0,0086
1018,00;0,0086
1017,00;0,0086
1016,00;0,0086
1015,00;0,0085
1014,00;0,0085
1013,00;0,0085
1012,00;0,0085
1011,00;0,0085
1010,00;0,0085
1009,00;0,0085
1008,00;0,0084
1007,00;0,0084
1006,00;0,0084
1005,00;0,0084
1004,00;0,0084
1003,00;0,0084
1002,00;0,0084
1001,00;0,0084
1000,00;0,0084
999,00;0,0083
998,00;0,0083
997,00;0,0083
996,00;0,0083
995,00;0,0083
994,00;0,0083
993,00;0,0083
992,00;0,0083
991,00;0,0083
990,00;0,0083
989,00;0,0083
988,00;0,0083
987,00;0,0083
986,00;0,0083
985,00;0,0083
984,00;0,0082
983,00;0,0082
982,00;0,0082
981,00;0,0082
980,00;0,0082
979,00;0,0082
978,00;0,0082
977,00;0,0082
976,00;0,0082
975,00;0,0081
974,00;0,0081
973,00;0,0081
972,00;0,0081
971,00;0,0081
970,00;0,0080
969,00;0,0080
968,00;0,0080
967,00;0,0080
966,00;0,0080
965,00;0,0080
964,00;0,0079
963,00;0,0079
962,00;0,0079
961,00;0,0079
960,00;0,0079
959,00;0,0078
958,00;0,0078
957,00;0,0078
956,00;0,0078
955,00;0,0078
954,00;0,0078
953,00;0,0077
952,00;0,0077
951,00;0,0077
950,00;0,0078
949,00;0,0078
948,00;0,0077
947,00;0,0077
946,00;0,0077
945,00;0,0077
944,00;0,0077
943,00;0,0077
942,00;0,0076
941,00;0,0076
940,00;0,0076
939,00;0,0076
938,00;0,0076
937,00;0,0077
936,00;0,0077
935,00;0,0076
934,00;0,0076
933,00;0,0076
932,00;0,0076
931,00;0,0076
930,00;0,0076
929,00;0,0076
928,00;0,0076
927,00;0,0076
926,00;0,0076
925,00;0,0076
924,00;0,0076
923,00;0,0076
922,00;0,0076
921,00;0,0076
920,00;0,0076
919,00;0,0076
918,00;0,0076
917,00;0,0076
916,00;0,0076
915,00;0,0076
914,00;0,0076
913,00;0,0076
912,00;0,0076
911,00;0,0076
910,00;0,0076
909,00;0,0076
908,00;0,0076
907,00;0,0076
906,00;0,0077
905,00;0,0077
904,00;0,0076
903,00;0,0076
902,00;0,0076
901,00;0,0076
900,00;0,0076
899,00;0,0076
898,00;0,0076
897,00;0,0077
896,00;0,0077
895,00;0,0076
894,00;0,0076
893,00;0,0076
892,00;0,0076
891,00;0,0076
890,00;0,0076
889,00;0,0076
888,00;0,0076
887,00;0,0077
886,00;0,0076
885,00;0,0076
884,00;0,0076
883,00;0,0076
882,00;0,0076
881,00;0,0076
880,00;0,0076
879,00;0,0076
878,00;0,0076
877,00;0,0076
876,00;0,0076
875,00;0,0076
874,00;0,0076
873,00;0,0076
872,00;0,0076
871,00;0,0076
870,00;0,0076
869,00;0,0076
868,00;0,0076
867,00;0,0076
866,00;0,0076
865,00;0,0077
864,00;0,0076
863,00;0,0076
862,00;0,0076
861,00;0,0076
860,00;0,0076
859,00;0,0076
858,00;0,0076
857,00;0,0076
856,00;0,0076
855,00;0,0076
854,00;0,0076
853,00;0,0076
852,00;0,0076
851,00;0,0076
850,00;0,0076
849,00;0,0076
848,00;0,0076
847,00;0,0076
846,00;0,0076
845,00;0,0076
844,00;0,0076
843,00;0,0076
842,00;0,0076
841,00;0,0077
840,00;0,0077
839,00;0,0077
838,00;0,0077
837,00;0,0076
836,00;0,0076
835,00;0,0075
834,00;0,0076
833,00;0,0076
832,00;0,0077
831,00;0,0077
830,00;0,0077
829,00;0,0077
828,00;0,0077
827,00;0,0077
826,00;0,0078
825,00;0,0078
824,00;0,0078
823,00;0,0077
822,00;0,0076
821,00;0,0075
820,00;0,0075
819,00;0,0075
818,00;0,0076
817,00;0,0077
816,00;0,0077
815,00;0,0077
814,00;0,0077
813,00;0,0076
812,00;0,0076
811,00;0,0076
810,00;0,0075
809,00;0,0075
808,00;0,0075
807,00;0,0076
806,00;0,0076
805,00;0,0076
804,00;0,0076
803,00;0,0076
802,00;0,0076
801,00;0,0076
800,00;0,0075
799,00;0,0075
798,00;0,0075
797,00;0,0075
796,00;0,0075
795,00;0,0075
794,00;0,0076
793,00;0,0076
792,00;0,0076
791,00;0,0076
790,00;0,0076
789,00;0,0076
788,00;0,0076
787,00;0,0076
786,00;0,0076
785,00;0,0076
784,00;0,0076
783,00;0,0076
782,00;0,0076
781,00;0,0076
780,00;0,0076
779,00;0,0075
778,00;0,0075
777,00;0,0075
776,00;0,0075
775,00;0,0075
774,00;0,0075
773,00;0,0075
772,00;0,0076
771,00;0,0076
770,00;0,0075
769,00;0,0075
768,00;0,0074
767,00;0,0075
766,00;0,0076
765,00;0,0076
764,00;0,0075
763,00;0,0074
762,00;0,0073
761,00;0,0072
760,00;0,0071
759,00;0,0071
758,00;0,0072
757,00;0,0072
756,00;0,0072
755,00;0,0072
754,00;0,0072
753,00;0,0072
752,00;0,0071
751,00;0,0071
750,00;0,0073
749,00;0,0075
748,00;0,0078
747,00;0,0081
746,00;0,0086
745,00;0,0093
744,00;0,0101
743,00;0,0110
742,00;0,0122
741,00;0,0134
740,00;0,0147
739,00;0,0162
738,00;0,0177
737,00;0,0192
736,00;0,0209
735,00;0,0225
734,00;0,0242
733,00;0,0259
732,00;0,0275
731,00;0,0291
730,00;0,0303
729,00;0,0312
728,00;0,0317
727,00;0,0318
726,00;0,0313
725,00;0,0305
724,00;0,0294
723,00;0,0281
722,00;0,0268
721,00;0,0258
720,00;0,0250
719,00;0,0245
718,00;0,0246
717,00;0,0251
716,00;0,0259
715,00;0,0270
714,00;0,0284
713,00;0,0301
712,00;0,0318
711,00;0,0335
710,00;0,0352
709,00;0,0369
708,00;0,0384
707,00;0,0397
706,00;0,0410
705,00;0,0423
704,00;0,0437
703,00;0,0451
702,00;0,0468
701,00;0,0486
700,00;0,0505
699,00;0,0525
698,00;0,0544
697,00;0,0561
696,00;0,0573
695,00;0,0581
694,00;0,0585
693,00;0,0584
692,00;0,0576
691,00;0,0562
690,00;0,0542
689,00;0,0516
688,00;0,0484
687,00;0,0447
686,00;0,0406
685,00;0,0364
684,00;0,0321
683,00;0,0279
682,00;0,0240
681,00;0,0203
680,00;0,0171
679,00;0,0143
678,00;0,0120
677,00;0,0102
676,00;0,0088
675,00;0,0077
674,00;0,0068
673,00;0,0062
672,00;0,0057
671,00;0,0052
670,00;0,0047
669,00;0,0044
668,00;0,0045
667,00;0,0051
666,00;0,0058
665,00;0,0063
664,00;0,0068
663,00;0,0075
662,00;0,0083
661,00;0,0094
660,00;0,0106
659,00;0,0120
658,00;0,0136
657,00;0,0154
656,00;0,0176
655,00;0,0200
654,00;0,0227
653,00;0,0254
652,00;0,0282
651,00;0,0311
650,00;0,0341
649,00;0,0373
648,00;0,0406
647,00;0,0439
646,00;0,0472
645,00;0,0504
644,00;0,0536
643,00;0,0565
642,00;0,0591
641,00;0,0616
640,00;0,0640
639,00;0,0662
638,00;0,0682
637,00;0,0701
636,00;0,0716
635,00;0,0723
634,00;0,0723
633,00;0,0716
632,00;0,0700
631,00;0,0675
630,00;0,0641
629,00;0,0604
628,00;0,0565
627,00;0,0526
626,00;0,0490
625,00;0,0459
624,00;0,0433
623,00;0,0412
622,00;0,0394
621,00;0,0379
620,00;0,0367
619,00;0,0357
618,00;0,0350
617,00;0,0346
616,00;0,0344
615,00;0,0341
614,00;0,0336
613,00;0,0330
612,00;0,0324
611,00;0,0315
610,00;0,0304
609,00;0,0292
608,00;0,0280
607,00;0,0268
606,00;0,0255
605,00;0,0242
604,00;0,0227
603,00;0,0210
602,00;0,0192
601,00;0,0176
600,00;0,0159
599,00;0,0143
598,00;0,0127
597,00;0,0114
596,00;0,0106
595,00;0,0104
594,00;0,0105
593,00;0,0112
592,00;0,0120
591,00;0,0127
590,00;0,0133
589,00;0,0138
588,00;0,0143
587,00;0,0145
586,00;0,0146
585,00;0,0147
584,00;0,0148
583,00;0,0145
582,00;0,0140
581,00;0,0134
580,00;0,0127
579,00;0,0115
578,00;0,0100
577,00;0,0084
576,00;0,0068
575,00;0,0054
574,00;0,0044
573,00;0,0040
572,00;0,0043
571,00;0,0052
570,00;0,0067
569,00;0,0087
568,00;0,0112
567,00;0,0140
566,00;0,0173
565,00;0,0211
564,00;0,0254
563,00;0,0297
562,00;0,0342
561,00;0,0393
560,00;0,0451
559,00;0,0512
558,00;0,0575
557,00;0,0641
556,00;0,0712
555,00;0,0781
554,00;0,0844
553,00;0,0902
552,00;0,0954
551,00;0,0999
550,00;0,1035
549,00;0,1066
548,00;0,1086
547,00;0,1088
546,00;0,1070
545,00;0,1040
544,00;0,1003
543,00;0,0956
542,00;0,0900
541,00;0,0839
540,00;0,0772
539,00;0,0696
538,00;0,0611
537,00;0,0522
536,00;0,0429
535,00;0,0334
534,00;0,0239
533,00;0,0151
532,00;0,0069
531,00;-0,0014
530,00;-0,0097
529,00;-0,0178
528,00;-0,0257
527,00;-0,0337
526,00;-0,0423
525,00;-0,0514
524,00;-0,0609
523,00;-0,0710
522,00;-0,0813
521,00;-0,0917
520,00;-0,1020
519,00;-0,1120
518,00;-0,1216
517,00;-0,1304
516,00;-0,1385
515,00;-0,1459
514,00;-0,1525
513,00;-0,1581
512,00;-0,1631
511,00;-0,1677
510,00;-0,1723
509,00;-0,1769
508,00;-0,1817
507,00;-0,1870
506,00;-0,1924
505,00;-0,1976
504,00;-0,2026
503,00;-0,2071
502,00;-0,2109
501,00;-0,2137
500,00;-0,2156
