Создан как новый массив данных;Образец 013 полученный BalashovM Дата среда, апреля 28 2021
cm-1;A
4000,00;0,0101
3999,00;0,0101
3998,00;0,0101
3997,00;0,0101
3996,00;0,0101
3995,00;0,0101
3994,00;0,0101
3993,00;0,0101
3992,00;0,0101
3991,00;0,0101
3990,00;0,0101
3989,00;0,0101
3988,00;0,0101
3987,00;0,0101
3986,00;0,0101
3985,00;0,0101
3984,00;0,0101
3983,00;0,0101
3982,00;0,0101
3981,00;0,0101
3980,00;0,0101
3979,00;0,0101
3978,00;0,0101
3977,00;0,0101
3976,00;0,0101
3975,00;0,0101
3974,00;0,0101
3973,00;0,0101
3972,00;0,0101
3971,00;0,0101
3970,00;0,0101
3969,00;0,0101
3968,00;0,0101
3967,00;0,0102
3966,00;0,0102
3965,00;0,0102
3964,00;0,0102
3963,00;0,0102
3962,00;0,0102
3961,00;0,0102
3960,00;0,0102
3959,00;0,0102
3958,00;0,0102
3957,00;0,0102
3956,00;0,0102
3955,00;0,0102
3954,00;0,0102
3953,00;0,0102
3952,00;0,0102
3951,00;0,0102
3950,00;0,0102
3949,00;0,0102
3948,00;0,0102
3947,00;0,0102
3946,00;0,0102
3945,00;0,0102
3944,00;0,0102
3943,00;0,0102
3942,00;0,0102
3941,00;0,0102
3940,00;0,0102
3939,00;0,0102
3938,00;0,0102
3937,00;0,0102
3936,00;0,0102
3935,00;0,0102
3934,00;0,0102
3933,00;0,0102
3932,00;0,0102
3931,00;0,0102
3930,00;0,0102
3929,00;0,0102
3928,00;0,0102
3927,00;0,0102
3926,00;0,0102
3925,00;0,0102
3924,00;0,0102
3923,00;0,0102
3922,00;0,0102
3921,00;0,0102
3920,00;0,0102
3919,00;0,0102
3918,00;0,0102
3917,00;0,0102
3916,00;0,0102
3915,00;0,0102
3914,00;0,0102
3913,00;0,0102
3912,00;0,0102
3911,00;0,0102
3910,00;0,0102
3909,00;0,0102
3908,00;0,0102
3907,00;0,0102
3906,00;0,0102
3905,00;0,0102
3904,00;0,0102
3903,00;0,0102
3902,00;0,0102
3901,00;0,0102
3900,00;0,0102
3899,00;0,0102
3898,00;0,0102
3897,00;0,0102
3896,00;0,0102
3895,00;0,0102
3894,00;0,0102
3893,00;0,0102
3892,00;0,0102
3891,00;0,0102
3890,00;0,0102
3889,00;0,0102
3888,00;0,0102
3887,00;0,0102
3886,00;0,0102
3885,00;0,0102
3884,00;0,0102
3883,00;0,0102
3882,00;0,0102
3881,00;0,0102
3880,00;0,0102
3879,00;0,0102
3878,00;0,0102
3877,00;0,0102
3876,00;0,0102
3875,00;0,0102
3874,00;0,0102
3873,00;0,0102
3872,00;0,0102
3871,00;0,0102
3870,00;0,0102
3869,00;0,0102
3868,00;0,0102
3867,00;0,0102
3866,00;0,0102
3865,00;0,0102
3864,00;0,0102
3863,00;0,0102
3862,00;0,0102
3861,00;0,0102
3860,00;0,0102
3859,00;0,0102
3858,00;0,0102
3857,00;0,0102
3856,00;0,0102
3855,00;0,0102
3854,00;0,0102
3853,00;0,0102
3852,00;0,0102
3851,00;0,0102
3850,00;0,0102
3849,00;0,0102
3848,00;0,0102
3847,00;0,0102
3846,00;0,0102
3845,00;0,0102
3844,00;0,0102
3843,00;0,0102
3842,00;0,0102
3841,00;0,0102
3840,00;0,0102
3839,00;0,0102
3838,00;0,0102
3837,00;0,0102
3836,00;0,0102
3835,00;0,0102
3834,00;0,0102
3833,00;0,0102
3832,00;0,0102
3831,00;0,0103
3830,00;0,0103
3829,00;0,0103
3828,00;0,0103
3827,00;0,0103
3826,00;0,0103
3825,00;0,0103
3824,00;0,0103
3823,00;0,0103
3822,00;0,0103
3821,00;0,0103
3820,00;0,0103
3819,00;0,0103
3818,00;0,0103
3817,00;0,0103
3816,00;0,0103
3815,00;0,0103
3814,00;0,0103
3813,00;0,0103
3812,00;0,0103
3811,00;0,0103
3810,00;0,0103
3809,00;0,0103
3808,00;0,0103
3807,00;0,0103
3806,00;0,0103
3805,00;0,0103
3804,00;0,0103
3803,00;0,0103
3802,00;0,0103
3801,00;0,0103
3800,00;0,0103
3799,00;0,0103
3798,00;0,0103
3797,00;0,0103
3796,00;0,0103
3795,00;0,0103
3794,00;0,0103
3793,00;0,0103
3792,00;0,0103
3791,00;0,0104
3790,00;0,0104
3789,00;0,0104
3788,00;0,0104
3787,00;0,0104
3786,00;0,0104
3785,00;0,0104
3784,00;0,0104
3783,00;0,0104
3782,00;0,0104
3781,00;0,0104
3780,00;0,0104
3779,00;0,0104
3778,00;0,0104
3777,00;0,0104
3776,00;0,0104
3775,00;0,0103
3774,00;0,0103
3773,00;0,0103
3772,00;0,0103
3771,00;0,0103
3770,00;0,0103
3769,00;0,0103
3768,00;0,0103
3767,00;0,0103
3766,00;0,0103
3765,00;0,0103
3764,00;0,0103
3763,00;0,0103
3762,00;0,0103
3761,00;0,0103
3760,00;0,0103
3759,00;0,0103
3758,00;0,0103
3757,00;0,0103
3756,00;0,0103
3755,00;0,0103
3754,00;0,0103
3753,00;0,0103
3752,00;0,0103
3751,00;0,0103
3750,00;0,0103
3749,00;0,0103
3748,00;0,0103
3747,00;0,0103
3746,00;0,0103
3745,00;0,0103
3744,00;0,0103
3743,00;0,0103
3742,00;0,0103
3741,00;0,0104
3740,00;0,0104
3739,00;0,0104
3738,00;0,0104
3737,00;0,0104
3736,00;0,0104
3735,00;0,0104
3734,00;0,0104
3733,00;0,0104
3732,00;0,0104
3731,00;0,0104
3730,00;0,0104
3729,00;0,0104
3728,00;0,0104
3727,00;0,0104
3726,00;0,0104
3725,00;0,0104
3724,00;0,0104
3723,00;0,0104
3722,00;0,0104
3721,00;0,0104
3720,00;0,0104
3719,00;0,0104
3718,00;0,0104
3717,00;0,0104
3716,00;0,0104
3715,00;0,0104
3714,00;0,0104
3713,00;0,0104
3712,00;0,0104
3711,00;0,0104
3710,00;0,0104
3709,00;0,0104
3708,00;0,0104
3707,00;0,0104
3706,00;0,0104
3705,00;0,0104
3704,00;0,0104
3703,00;0,0104
3702,00;0,0104
3701,00;0,0104
3700,00;0,0104
3699,00;0,0104
3698,00;0,0104
3697,00;0,0104
3696,00;0,0104
3695,00;0,0104
3694,00;0,0104
3693,00;0,0104
3692,00;0,0104
3691,00;0,0104
3690,00;0,0104
3689,00;0,0104
3688,00;0,0104
3687,00;0,0104
3686,00;0,0104
3685,00;0,0104
3684,00;0,0104
3683,00;0,0104
3682,00;0,0104
3681,00;0,0104
3680,00;0,0104
3679,00;0,0104
3678,00;0,0104
3677,00;0,0104
3676,00;0,0104
3675,00;0,0104
3674,00;0,0104
3673,00;0,0104
3672,00;0,0104
3671,00;0,0105
3670,00;0,0105
3669,00;0,0105
3668,00;0,0105
3667,00;0,0105
3666,00;0,0105
3665,00;0,0105
3664,00;0,0105
3663,00;0,0105
3662,00;0,0105
3661,00;0,0105
3660,00;0,0105
3659,00;0,0105
3658,00;0,0105
3657,00;0,0105
3656,00;0,0105
3655,00;0,0105
3654,00;0,0105
3653,00;0,0105
3652,00;0,0105
3651,00;0,0105
3650,00;0,0105
3649,00;0,0105
3648,00;0,0105
3647,00;0,0105
3646,00;0,0105
3645,00;0,0106
3644,00;0,0106
3643,00;0,0106
3642,00;0,0106
3641,00;0,0106
3640,00;0,0106
3639,00;0,0106
3638,00;0,0106
3637,00;0,0106
3636,00;0,0106
3635,00;0,0106
3634,00;0,0106
3633,00;0,0106
3632,00;0,0106
3631,00;0,0106
3630,00;0,0106
3629,00;0,0106
3628,00;0,0107
3627,00;0,0107
3626,00;0,0107
3625,00;0,0107
3624,00;0,0107
3623,00;0,0107
3622,00;0,0107
3621,00;0,0107
3620,00;0,0107
3619,00;0,0107
3618,00;0,0107
3617,00;0,0107
3616,00;0,0107
3615,00;0,0107
3614,00;0,0108
3613,00;0,0108
3612,00;0,0108
3611,00;0,0108
3610,00;0,0108
3609,00;0,0108
3608,00;0,0108
3607,00;0,0108
3606,00;0,0108
3605,00;0,0108
3604,00;0,0108
3603,00;0,0108
3602,00;0,0109
3601,00;0,0109
3600,00;0,0109
3599,00;0,0109
3598,00;0,0109
3597,00;0,0109
3596,00;0,0109
3595,00;0,0109
3594,00;0,0109
3593,00;0,0109
3592,00;0,0109
3591,00;0,0109
3590,00;0,0109
3589,00;0,0110
3588,00;0,0110
3587,00;0,0110
3586,00;0,0110
3585,00;0,0110
3584,00;0,0110
3583,00;0,0110
3582,00;0,0110
3581,00;0,0110
3580,00;0,0110
3579,00;0,0110
3578,00;0,0111
3577,00;0,0111
3576,00;0,0111
3575,00;0,0111
3574,00;0,0111
3573,00;0,0111
3572,00;0,0111
3571,00;0,0111
3570,00;0,0111
3569,00;0,0111
3568,00;0,0112
3567,00;0,0112
3566,00;0,0112
3565,00;0,0112
3564,00;0,0112
3563,00;0,0112
3562,00;0,0113
3561,00;0,0113
3560,00;0,0113
3559,00;0,0113
3558,00;0,0113
3557,00;0,0113
3556,00;0,0113
3555,00;0,0113
3554,00;0,0113
3553,00;0,0113
3552,00;0,0113
3551,00;0,0113
3550,00;0,0113
3549,00;0,0113
3548,00;0,0114
3547,00;0,0114
3546,00;0,0114
3545,00;0,0114
3544,00;0,0114
3543,00;0,0114
3542,00;0,0114
3541,00;0,0114
3540,00;0,0115
3539,00;0,0115
3538,00;0,0115
3537,00;0,0115
3536,00;0,0115
3535,00;0,0115
3534,00;0,0115
3533,00;0,0115
3532,00;0,0115
3531,00;0,0115
3530,00;0,0116
3529,00;0,0116
3528,00;0,0116
3527,00;0,0116
3526,00;0,0116
3525,00;0,0116
3524,00;0,0116
3523,00;0,0117
3522,00;0,0117
3521,00;0,0117
3520,00;0,0117
3519,00;0,0117
3518,00;0,0117
3517,00;0,0117
3516,00;0,0117
3515,00;0,0117
3514,00;0,0117
3513,00;0,0117
3512,00;0,0117
3511,00;0,0117
3510,00;0,0118
3509,00;0,0118
3508,00;0,0118
3507,00;0,0118
3506,00;0,0118
3505,00;0,0118
3504,00;0,0118
3503,00;0,0118
3502,00;0,0118
3501,00;0,0119
3500,00;0,0119
3499,00;0,0119
3498,00;0,0119
3497,00;0,0119
3496,00;0,0119
3495,00;0,0119
3494,00;0,0119
3493,00;0,0119
3492,00;0,0119
3491,00;0,0119
3490,00;0,0119
3489,00;0,0120
3488,00;0,0120
3487,00;0,0120
3486,00;0,0120
3485,00;0,0120
3484,00;0,0120
3483,00;0,0120
3482,00;0,0120
3481,00;0,0120
3480,00;0,0121
3479,00;0,0121
3478,00;0,0121
3477,00;0,0121
3476,00;0,0121
3475,00;0,0121
3474,00;0,0121
3473,00;0,0121
3472,00;0,0121
3471,00;0,0121
3470,00;0,0121
3469,00;0,0121
3468,00;0,0121
3467,00;0,0122
3466,00;0,0122
3465,00;0,0122
3464,00;0,0122
3463,00;0,0122
3462,00;0,0122
3461,00;0,0122
3460,00;0,0122
3459,00;0,0122
3458,00;0,0122
3457,00;0,0122
3456,00;0,0122
3455,00;0,0122
3454,00;0,0122
3453,00;0,0123
3452,00;0,0123
3451,00;0,0123
3450,00;0,0123
3449,00;0,0123
3448,00;0,0123
3447,00;0,0123
3446,00;0,0123
3445,00;0,0123
3444,00;0,0123
3443,00;0,0123
3442,00;0,0123
3441,00;0,0123
3440,00;0,0124
3439,00;0,0124
3438,00;0,0124
3437,00;0,0124
3436,00;0,0124
3435,00;0,0124
3434,00;0,0124
3433,00;0,0124
3432,00;0,0124
3431,00;0,0124
3430,00;0,0124
3429,00;0,0124
3428,00;0,0124
3427,00;0,0124
3426,00;0,0124
3425,00;0,0124
3424,00;0,0125
3423,00;0,0125
3422,00;0,0125
3421,00;0,0125
3420,00;0,0125
3419,00;0,0125
3418,00;0,0125
3417,00;0,0125
3416,00;0,0125
3415,00;0,0125
3414,00;0,0125
3413,00;0,0125
3412,00;0,0125
3411,00;0,0125
3410,00;0,0126
3409,00;0,0126
3408,00;0,0126
3407,00;0,0126
3406,00;0,0126
3405,00;0,0126
3404,00;0,0126
3403,00;0,0126
3402,00;0,0126
3401,00;0,0126
3400,00;0,0126
3399,00;0,0126
3398,00;0,0126
3397,00;0,0126
3396,00;0,0126
3395,00;0,0126
3394,00;0,0126
3393,00;0,0126
3392,00;0,0126
3391,00;0,0126
3390,00;0,0126
3389,00;0,0127
3388,00;0,0127
3387,00;0,0127
3386,00;0,0127
3385,00;0,0127
3384,00;0,0127
3383,00;0,0127
3382,00;0,0127
3381,00;0,0127
3380,00;0,0127
3379,00;0,0127
3378,00;0,0127
3377,00;0,0127
3376,00;0,0127
3375,00;0,0127
3374,00;0,0127
3373,00;0,0127
3372,00;0,0127
3371,00;0,0127
3370,00;0,0127
3369,00;0,0127
3368,00;0,0127
3367,00;0,0127
3366,00;0,0127
3365,00;0,0127
3364,00;0,0127
3363,00;0,0127
3362,00;0,0127
3361,00;0,0127
3360,00;0,0127
3359,00;0,0127
3358,00;0,0127
3357,00;0,0127
3356,00;0,0128
3355,00;0,0128
3354,00;0,0128
3353,00;0,0128
3352,00;0,0128
3351,00;0,0128
3350,00;0,0128
3349,00;0,0128
3348,00;0,0128
3347,00;0,0128
3346,00;0,0128
3345,00;0,0128
3344,00;0,0128
3343,00;0,0128
3342,00;0,0128
3341,00;0,0128
3340,00;0,0128
3339,00;0,0128
3338,00;0,0128
3337,00;0,0128
3336,00;0,0128
3335,00;0,0128
3334,00;0,0128
3333,00;0,0128
3332,00;0,0128
3331,00;0,0128
3330,00;0,0128
3329,00;0,0128
3328,00;0,0128
3327,00;0,0128
3326,00;0,0128
3325,00;0,0128
3324,00;0,0128
3323,00;0,0128
3322,00;0,0128
3321,00;0,0128
3320,00;0,0128
3319,00;0,0128
3318,00;0,0128
3317,00;0,0128
3316,00;0,0128
3315,00;0,0128
3314,00;0,0128
3313,00;0,0128
3312,00;0,0129
3311,00;0,0129
3310,00;0,0129
3309,00;0,0129
3308,00;0,0129
3307,00;0,0129
3306,00;0,0129
3305,00;0,0129
3304,00;0,0129
3303,00;0,0129
3302,00;0,0129
3301,00;0,0129
3300,00;0,0129
3299,00;0,0129
3298,00;0,0129
3297,00;0,0129
3296,00;0,0129
3295,00;0,0129
3294,00;0,0129
3293,00;0,0129
3292,00;0,0129
3291,00;0,0129
3290,00;0,0129
3289,00;0,0129
3288,00;0,0129
3287,00;0,0129
3286,00;0,0129
3285,00;0,0129
3284,00;0,0129
3283,00;0,0129
3282,00;0,0129
3281,00;0,0129
3280,00;0,0129
3279,00;0,0129
3278,00;0,0129
3277,00;0,0129
3276,00;0,0129
3275,00;0,0129
3274,00;0,0129
3273,00;0,0129
3272,00;0,0129
3271,00;0,0129
3270,00;0,0129
3269,00;0,0129
3268,00;0,0129
3267,00;0,0130
3266,00;0,0130
3265,00;0,0130
3264,00;0,0130
3263,00;0,0130
3262,00;0,0130
3261,00;0,0130
3260,00;0,0130
3259,00;0,0130
3258,00;0,0130
3257,00;0,0130
3256,00;0,0130
3255,00;0,0130
3254,00;0,0130
3253,00;0,0130
3252,00;0,0130
3251,00;0,0130
3250,00;0,0130
3249,00;0,0130
3248,00;0,0130
3247,00;0,0130
3246,00;0,0130
3245,00;0,0130
3244,00;0,0130
3243,00;0,0130
3242,00;0,0130
3241,00;0,0130
3240,00;0,0130
3239,00;0,0130
3238,00;0,0130
3237,00;0,0130
3236,00;0,0130
3235,00;0,0130
3234,00;0,0130
3233,00;0,0130
3232,00;0,0130
3231,00;0,0130
3230,00;0,0130
3229,00;0,0130
3228,00;0,0130
3227,00;0,0130
3226,00;0,0130
3225,00;0,0130
3224,00;0,0130
3223,00;0,0130
3222,00;0,0130
3221,00;0,0130
3220,00;0,0130
3219,00;0,0130
3218,00;0,0130
3217,00;0,0130
3216,00;0,0130
3215,00;0,0130
3214,00;0,0130
3213,00;0,0130
3212,00;0,0130
3211,00;0,0130
3210,00;0,0130
3209,00;0,0130
3208,00;0,0130
3207,00;0,0130
3206,00;0,0130
3205,00;0,0130
3204,00;0,0130
3203,00;0,0130
3202,00;0,0130
3201,00;0,0130
3200,00;0,0130
3199,00;0,0130
3198,00;0,0130
3197,00;0,0130
3196,00;0,0130
3195,00;0,0130
3194,00;0,0130
3193,00;0,0130
3192,00;0,0130
3191,00;0,0130
3190,00;0,0130
3189,00;0,0130
3188,00;0,0130
3187,00;0,0130
3186,00;0,0130
3185,00;0,0130
3184,00;0,0130
3183,00;0,0130
3182,00;0,0130
3181,00;0,0130
3180,00;0,0130
3179,00;0,0130
3178,00;0,0130
3177,00;0,0130
3176,00;0,0130
3175,00;0,0130
3174,00;0,0130
3173,00;0,0130
3172,00;0,0130
3171,00;0,0130
3170,00;0,0130
3169,00;0,0130
3168,00;0,0130
3167,00;0,0130
3166,00;0,0130
3165,00;0,0130
3164,00;0,0130
3163,00;0,0130
3162,00;0,0130
3161,00;0,0131
3160,00;0,0131
3159,00;0,0131
3158,00;0,0130
3157,00;0,0130
3156,00;0,0130
3155,00;0,0130
3154,00;0,0131
3153,00;0,0131
3152,00;0,0131
3151,00;0,0131
3150,00;0,0131
3149,00;0,0131
3148,00;0,0131
3147,00;0,0131
3146,00;0,0131
3145,00;0,0131
3144,00;0,0130
3143,00;0,0130
3142,00;0,0130
3141,00;0,0131
3140,00;0,0131
3139,00;0,0131
3138,00;0,0131
3137,00;0,0131
3136,00;0,0131
3135,00;0,0131
3134,00;0,0131
3133,00;0,0131
3132,00;0,0131
3131,00;0,0131
3130,00;0,0131
3129,00;0,0131
3128,00;0,0131
3127,00;0,0131
3126,00;0,0131
3125,00;0,0131
3124,00;0,0131
3123,00;0,0131
3122,00;0,0131
3121,00;0,0131
3120,00;0,0131
3119,00;0,0131
3118,00;0,0131
3117,00;0,0131
3116,00;0,0131
3115,00;0,0131
3114,00;0,0131
3113,00;0,0131
3112,00;0,0131
3111,00;0,0131
3110,00;0,0131
3109,00;0,0131
3108,00;0,0131
3107,00;0,0131
3106,00;0,0131
3105,00;0,0131
3104,00;0,0131
3103,00;0,0131
3102,00;0,0131
3101,00;0,0131
3100,00;0,0131
3099,00;0,0131
3098,00;0,0131
3097,00;0,0131
3096,00;0,0131
3095,00;0,0131
3094,00;0,0131
3093,00;0,0131
3092,00;0,0131
3091,00;0,0131
3090,00;0,0131
3089,00;0,0131
3088,00;0,0131
3087,00;0,0131
3086,00;0,0131
3085,00;0,0131
3084,00;0,0131
3083,00;0,0131
3082,00;0,0131
3081,00;0,0131
3080,00;0,0131
3079,00;0,0131
3078,00;0,0131
3077,00;0,0131
3076,00;0,0131
3075,00;0,0131
3074,00;0,0131
3073,00;0,0131
3072,00;0,0131
3071,00;0,0131
3070,00;0,0131
3069,00;0,0131
3068,00;0,0131
3067,00;0,0131
3066,00;0,0131
3065,00;0,0131
3064,00;0,0131
3063,00;0,0131
3062,00;0,0131
3061,00;0,0131
3060,00;0,0131
3059,00;0,0131
3058,00;0,0131
3057,00;0,0131
3056,00;0,0130
3055,00;0,0130
3054,00;0,0130
3053,00;0,0131
3052,00;0,0131
3051,00;0,0131
3050,00;0,0131
3049,00;0,0131
3048,00;0,0131
3047,00;0,0131
3046,00;0,0131
3045,00;0,0131
3044,00;0,0131
3043,00;0,0131
3042,00;0,0131
3041,00;0,0131
3040,00;0,0131
3039,00;0,0131
3038,00;0,0131
3037,00;0,0131
3036,00;0,0131
3035,00;0,0131
3034,00;0,0131
3033,00;0,0131
3032,00;0,0131
3031,00;0,0131
3030,00;0,0131
3029,00;0,0131
3028,00;0,0131
3027,00;0,0131
3026,00;0,0131
3025,00;0,0131
3024,00;0,0131
3023,00;0,0131
3022,00;0,0131
3021,00;0,0131
3020,00;0,0131
3019,00;0,0131
3018,00;0,0131
3017,00;0,0132
3016,00;0,0132
3015,00;0,0132
3014,00;0,0132
3013,00;0,0132
3012,00;0,0132
3011,00;0,0132
3010,00;0,0132
3009,00;0,0132
3008,00;0,0132
3007,00;0,0132
3006,00;0,0132
3005,00;0,0132
3004,00;0,0132
3003,00;0,0132
3002,00;0,0132
3001,00;0,0132
3000,00;0,0133
2999,00;0,0133
2998,00;0,0133
2997,00;0,0133
2996,00;0,0133
2995,00;0,0133
2994,00;0,0133
2993,00;0,0133
2992,00;0,0133
2991,00;0,0133
2990,00;0,0133
2989,00;0,0133
2988,00;0,0133
2987,00;0,0133
2986,00;0,0133
2985,00;0,0133
2984,00;0,0133
2983,00;0,0133
2982,00;0,0133
2981,00;0,0133
2980,00;0,0133
2979,00;0,0133
2978,00;0,0133
2977,00;0,0133
2976,00;0,0133
2975,00;0,0133
2974,00;0,0133
2973,00;0,0133
2972,00;0,0133
2971,00;0,0133
2970,00;0,0133
2969,00;0,0133
2968,00;0,0133
2967,00;0,0133
2966,00;0,0133
2965,00;0,0133
2964,00;0,0133
2963,00;0,0133
2962,00;0,0133
2961,00;0,0133
2960,00;0,0133
2959,00;0,0133
2958,00;0,0133
2957,00;0,0133
2956,00;0,0133
2955,00;0,0133
2954,00;0,0133
2953,00;0,0133
2952,00;0,0133
2951,00;0,0133
2950,00;0,0133
2949,00;0,0132
2948,00;0,0132
2947,00;0,0132
2946,00;0,0132
2945,00;0,0132
2944,00;0,0132
2943,00;0,0132
2942,00;0,0132
2941,00;0,0132
2940,00;0,0132
2939,00;0,0132
2938,00;0,0132
2937,00;0,0132
2936,00;0,0132
2935,00;0,0132
2934,00;0,0133
2933,00;0,0133
2932,00;0,0133
2931,00;0,0133
2930,00;0,0133
2929,00;0,0133
2928,00;0,0133
2927,00;0,0133
2926,00;0,0133
2925,00;0,0133
2924,00;0,0133
2923,00;0,0133
2922,00;0,0133
2921,00;0,0133
2920,00;0,0133
2919,00;0,0133
2918,00;0,0133
2917,00;0,0133
2916,00;0,0133
2915,00;0,0133
2914,00;0,0133
2913,00;0,0133
2912,00;0,0133
2911,00;0,0133
2910,00;0,0133
2909,00;0,0133
2908,00;0,0133
2907,00;0,0133
2906,00;0,0133
2905,00;0,0133
2904,00;0,0133
2903,00;0,0133
2902,00;0,0133
2901,00;0,0133
2900,00;0,0133
2899,00;0,0133
2898,00;0,0133
2897,00;0,0133
2896,00;0,0133
2895,00;0,0133
2894,00;0,0133
2893,00;0,0133
2892,00;0,0133
2891,00;0,0132
2890,00;0,0132
2889,00;0,0132
2888,00;0,0132
2887,00;0,0132
2886,00;0,0132
2885,00;0,0132
2884,00;0,0132
2883,00;0,0132
2882,00;0,0132
2881,00;0,0132
2880,00;0,0132
2879,00;0,0132
2878,00;0,0132
2877,00;0,0132
2876,00;0,0132
2875,00;0,0132
2874,00;0,0132
2873,00;0,0132
2872,00;0,0132
2871,00;0,0132
2870,00;0,0132
2869,00;0,0132
2868,00;0,0132
2867,00;0,0132
2866,00;0,0131
2865,00;0,0131
2864,00;0,0131
2863,00;0,0131
2862,00;0,0131
2861,00;0,0131
2860,00;0,0131
2859,00;0,0131
2858,00;0,0131
2857,00;0,0131
2856,00;0,0131
2855,00;0,0131
2854,00;0,0131
2853,00;0,0131
2852,00;0,0131
2851,00;0,0131
2850,00;0,0131
2849,00;0,0131
2848,00;0,0131
2847,00;0,0131
2846,00;0,0131
2845,00;0,0131
2844,00;0,0131
2843,00;0,0131
2842,00;0,0130
2841,00;0,0130
2840,00;0,0130
2839,00;0,0130
2838,00;0,0130
2837,00;0,0130
2836,00;0,0130
2835,00;0,0130
2834,00;0,0130
2833,00;0,0130
2832,00;0,0130
2831,00;0,0130
2830,00;0,0130
2829,00;0,0130
2828,00;0,0130
2827,00;0,0130
2826,00;0,0130
2825,00;0,0130
2824,00;0,0130
2823,00;0,0130
2822,00;0,0130
2821,00;0,0130
2820,00;0,0130
2819,00;0,0130
2818,00;0,0129
2817,00;0,0129
2816,00;0,0129
2815,00;0,0129
2814,00;0,0129
2813,00;0,0129
2812,00;0,0129
2811,00;0,0129
2810,00;0,0129
2809,00;0,0129
2808,00;0,0129
2807,00;0,0129
2806,00;0,0129
2805,00;0,0129
2804,00;0,0129
2803,00;0,0129
2802,00;0,0129
2801,00;0,0129
2800,00;0,0129
2799,00;0,0129
2798,00;0,0129
2797,00;0,0129
2796,00;0,0129
2795,00;0,0129
2794,00;0,0129
2793,00;0,0129
2792,00;0,0129
2791,00;0,0129
2790,00;0,0129
2789,00;0,0129
2788,00;0,0129
2787,00;0,0129
2786,00;0,0128
2785,00;0,0128
2784,00;0,0128
2783,00;0,0128
2782,00;0,0128
2781,00;0,0128
2780,00;0,0128
2779,00;0,0128
2778,00;0,0128
2777,00;0,0128
2776,00;0,0128
2775,00;0,0128
2774,00;0,0128
2773,00;0,0128
2772,00;0,0128
2771,00;0,0128
2770,00;0,0128
2769,00;0,0128
2768,00;0,0128
2767,00;0,0128
2766,00;0,0128
2765,00;0,0128
2764,00;0,0128
2763,00;0,0128
2762,00;0,0128
2761,00;0,0128
2760,00;0,0128
2759,00;0,0128
2758,00;0,0128
2757,00;0,0128
2756,00;0,0128
2755,00;0,0128
2754,00;0,0128
2753,00;0,0128
2752,00;0,0128
2751,00;0,0128
2750,00;0,0128
2749,00;0,0128
2748,00;0,0128
2747,00;0,0128
2746,00;0,0128
2745,00;0,0128
2744,00;0,0128
2743,00;0,0128
2742,00;0,0128
2741,00;0,0127
2740,00;0,0127
2739,00;0,0128
2738,00;0,0128
2737,00;0,0127
2736,00;0,0127
2735,00;0,0127
2734,00;0,0127
2733,00;0,0127
2732,00;0,0127
2731,00;0,0127
2730,00;0,0127
2729,00;0,0127
2728,00;0,0127
2727,00;0,0128
2726,00;0,0128
2725,00;0,0128
2724,00;0,0128
2723,00;0,0128
2722,00;0,0127
2721,00;0,0127
2720,00;0,0127
2719,00;0,0127
2718,00;0,0127
2717,00;0,0127
2716,00;0,0127
2715,00;0,0127
2714,00;0,0127
2713,00;0,0127
2712,00;0,0127
2711,00;0,0127
2710,00;0,0127
2709,00;0,0127
2708,00;0,0127
2707,00;0,0127
2706,00;0,0127
2705,00;0,0127
2704,00;0,0127
2703,00;0,0127
2702,00;0,0127
2701,00;0,0127
2700,00;0,0127
2699,00;0,0127
2698,00;0,0127
2697,00;0,0127
2696,00;0,0127
2695,00;0,0127
2694,00;0,0127
2693,00;0,0127
2692,00;0,0127
2691,00;0,0127
2690,00;0,0127
2689,00;0,0127
2688,00;0,0127
2687,00;0,0127
2686,00;0,0127
2685,00;0,0127
2684,00;0,0127
2683,00;0,0127
2682,00;0,0127
2681,00;0,0127
2680,00;0,0127
2679,00;0,0127
2678,00;0,0127
2677,00;0,0127
2676,00;0,0127
2675,00;0,0127
2674,00;0,0127
2673,00;0,0127
2672,00;0,0127
2671,00;0,0127
2670,00;0,0127
2669,00;0,0127
2668,00;0,0127
2667,00;0,0127
2666,00;0,0127
2665,00;0,0127
2664,00;0,0127
2663,00;0,0127
2662,00;0,0127
2661,00;0,0127
2660,00;0,0127
2659,00;0,0127
2658,00;0,0128
2657,00;0,0128
2656,00;0,0128
2655,00;0,0127
2654,00;0,0127
2653,00;0,0127
2652,00;0,0127
2651,00;0,0127
2650,00;0,0127
2649,00;0,0127
2648,00;0,0127
2647,00;0,0127
2646,00;0,0127
2645,00;0,0127
2644,00;0,0127
2643,00;0,0126
2642,00;0,0126
2641,00;0,0126
2640,00;0,0127
2639,00;0,0127
2638,00;0,0127
2637,00;0,0127
2636,00;0,0127
2635,00;0,0126
2634,00;0,0126
2633,00;0,0126
2632,00;0,0126
2631,00;0,0126
2630,00;0,0126
2629,00;0,0126
2628,00;0,0126
2627,00;0,0126
2626,00;0,0126
2625,00;0,0126
2624,00;0,0126
2623,00;0,0126
2622,00;0,0125
2621,00;0,0125
2620,00;0,0125
2619,00;0,0125
2618,00;0,0125
2617,00;0,0125
2616,00;0,0125
2615,00;0,0125
2614,00;0,0125
2613,00;0,0125
2612,00;0,0125
2611,00;0,0124
2610,00;0,0124
2609,00;0,0124
2608,00;0,0124
2607,00;0,0124
2606,00;0,0124
2605,00;0,0124
2604,00;0,0124
2603,00;0,0124
2602,00;0,0124
2601,00;0,0124
2600,00;0,0124
2599,00;0,0124
2598,00;0,0124
2597,00;0,0123
2596,00;0,0123
2595,00;0,0123
2594,00;0,0123
2593,00;0,0123
2592,00;0,0123
2591,00;0,0123
2590,00;0,0123
2589,00;0,0123
2588,00;0,0123
2587,00;0,0123
2586,00;0,0123
2585,00;0,0123
2584,00;0,0123
2583,00;0,0122
2582,00;0,0122
2581,00;0,0122
2580,00;0,0122
2579,00;0,0122
2578,00;0,0122
2577,00;0,0122
2576,00;0,0122
2575,00;0,0122
2574,00;0,0122
2573,00;0,0122
2572,00;0,0122
2571,00;0,0122
2570,00;0,0122
2569,00;0,0122
2568,00;0,0122
2567,00;0,0122
2566,00;0,0122
2565,00;0,0122
2564,00;0,0122
2563,00;0,0122
2562,00;0,0121
2561,00;0,0121
2560,00;0,0121
2559,00;0,0121
2558,00;0,0121
2557,00;0,0121
2556,00;0,0121
2555,00;0,0121
2554,00;0,0121
2553,00;0,0121
2552,00;0,0121
2551,00;0,0121
2550,00;0,0121
2549,00;0,0121
2548,00;0,0121
2547,00;0,0121
2546,00;0,0121
2545,00;0,0121
2544,00;0,0121
2543,00;0,0121
2542,00;0,0121
2541,00;0,0121
2540,00;0,0121
2539,00;0,0121
2538,00;0,0121
2537,00;0,0120
2536,00;0,0120
2535,00;0,0120
2534,00;0,0120
2533,00;0,0120
2532,00;0,0120
2531,00;0,0120
2530,00;0,0120
2529,00;0,0120
2528,00;0,0120
2527,00;0,0120
2526,00;0,0120
2525,00;0,0120
2524,00;0,0120
2523,00;0,0120
2522,00;0,0120
2521,00;0,0120
2520,00;0,0120
2519,00;0,0120
2518,00;0,0120
2517,00;0,0120
2516,00;0,0120
2515,00;0,0120
2514,00;0,0120
2513,00;0,0120
2512,00;0,0120
2511,00;0,0120
2510,00;0,0120
2509,00;0,0120
2508,00;0,0120
2507,00;0,0120
2506,00;0,0120
2505,00;0,0120
2504,00;0,0120
2503,00;0,0120
2502,00;0,0120
2501,00;0,0120
2500,00;0,0120
2499,00;0,0120
2498,00;0,0119
2497,00;0,0119
2496,00;0,0119
2495,00;0,0119
2494,00;0,0119
2493,00;0,0119
2492,00;0,0119
2491,00;0,0119
2490,00;0,0119
2489,00;0,0119
2488,00;0,0119
2487,00;0,0119
2486,00;0,0119
2485,00;0,0119
2484,00;0,0119
2483,00;0,0119
2482,00;0,0119
2481,00;0,0119
2480,00;0,0119
2479,00;0,0119
2478,00;0,0119
2477,00;0,0119
2476,00;0,0119
2475,00;0,0119
2474,00;0,0119
2473,00;0,0119
2472,00;0,0119
2471,00;0,0119
2470,00;0,0119
2469,00;0,0119
2468,00;0,0119
2467,00;0,0119
2466,00;0,0119
2465,00;0,0119
2464,00;0,0119
2463,00;0,0119
2462,00;0,0119
2461,00;0,0119
2460,00;0,0119
2459,00;0,0119
2458,00;0,0119
2457,00;0,0119
2456,00;0,0119
2455,00;0,0119
2454,00;0,0119
2453,00;0,0119
2452,00;0,0119
2451,00;0,0119
2450,00;0,0119
2449,00;0,0119
2448,00;0,0119
2447,00;0,0119
2446,00;0,0119
2445,00;0,0119
2444,00;0,0119
2443,00;0,0119
2442,00;0,0119
2441,00;0,0119
2440,00;0,0119
2439,00;0,0119
2438,00;0,0119
2437,00;0,0119
2436,00;0,0119
2435,00;0,0119
2434,00;0,0119
2433,00;0,0119
2432,00;0,0119
2431,00;0,0119
2430,00;0,0118
2429,00;0,0118
2428,00;0,0118
2427,00;0,0118
2426,00;0,0118
2425,00;0,0118
2424,00;0,0118
2423,00;0,0118
2422,00;0,0118
2421,00;0,0118
2420,00;0,0118
2419,00;0,0118
2418,00;0,0118
2417,00;0,0118
2416,00;0,0118
2415,00;0,0118
2414,00;0,0118
2413,00;0,0118
2412,00;0,0118
2411,00;0,0118
2410,00;0,0118
2409,00;0,0118
2408,00;0,0118
2407,00;0,0118
2406,00;0,0117
2405,00;0,0117
2404,00;0,0117
2403,00;0,0117
2402,00;0,0117
2401,00;0,0117
2400,00;0,0117
2399,00;0,0117
2398,00;0,0117
2397,00;0,0118
2396,00;0,0118
2395,00;0,0118
2394,00;0,0118
2393,00;0,0117
2392,00;0,0117
2391,00;0,0117
2390,00;0,0117
2389,00;0,0118
2388,00;0,0118
2387,00;0,0118
2386,00;0,0119
2385,00;0,0119
2384,00;0,0119
2383,00;0,0120
2382,00;0,0120
2381,00;0,0121
2380,00;0,0121
2379,00;0,0122
2378,00;0,0122
2377,00;0,0122
2376,00;0,0122
2375,00;0,0122
2374,00;0,0122
2373,00;0,0122
2372,00;0,0122
2371,00;0,0122
2370,00;0,0122
2369,00;0,0123
2368,00;0,0123
2367,00;0,0123
2366,00;0,0124
2365,00;0,0125
2364,00;0,0125
2363,00;0,0125
2362,00;0,0125
2361,00;0,0126
2360,00;0,0126
2359,00;0,0126
2358,00;0,0127
2357,00;0,0127
2356,00;0,0127
2355,00;0,0127
2354,00;0,0127
2353,00;0,0128
2352,00;0,0128
2351,00;0,0128
2350,00;0,0128
2349,00;0,0128
2348,00;0,0129
2347,00;0,0129
2346,00;0,0130
2345,00;0,0131
2344,00;0,0131
2343,00;0,0131
2342,00;0,0131
2341,00;0,0131
2340,00;0,0131
2339,00;0,0131
2338,00;0,0131
2337,00;0,0130
2336,00;0,0130
2335,00;0,0131
2334,00;0,0131
2333,00;0,0131
2332,00;0,0131
2331,00;0,0130
2330,00;0,0130
2329,00;0,0130
2328,00;0,0131
2327,00;0,0131
2326,00;0,0132
2325,00;0,0133
2324,00;0,0134
2323,00;0,0133
2322,00;0,0132
2321,00;0,0132
2320,00;0,0131
2319,00;0,0130
2318,00;0,0130
2317,00;0,0130
2316,00;0,0129
2315,00;0,0129
2314,00;0,0129
2313,00;0,0129
2312,00;0,0128
2311,00;0,0128
2310,00;0,0128
2309,00;0,0127
2308,00;0,0127
2307,00;0,0126
2306,00;0,0126
2305,00;0,0126
2304,00;0,0126
2303,00;0,0125
2302,00;0,0125
2301,00;0,0125
2300,00;0,0125
2299,00;0,0125
2298,00;0,0125
2297,00;0,0125
2296,00;0,0125
2295,00;0,0124
2294,00;0,0124
2293,00;0,0124
2292,00;0,0124
2291,00;0,0124
2290,00;0,0124
2289,00;0,0124
2288,00;0,0123
2287,00;0,0123
2286,00;0,0123
2285,00;0,0123
2284,00;0,0123
2283,00;0,0123
2282,00;0,0123
2281,00;0,0122
2280,00;0,0122
2279,00;0,0122
2278,00;0,0122
2277,00;0,0122
2276,00;0,0121
2275,00;0,0121
2274,00;0,0121
2273,00;0,0121
2272,00;0,0121
2271,00;0,0121
2270,00;0,0121
2269,00;0,0120
2268,00;0,0120
2267,00;0,0120
2266,00;0,0120
2265,00;0,0120
2264,00;0,0120
2263,00;0,0120
2262,00;0,0120
2261,00;0,0120
2260,00;0,0120
2259,00;0,0119
2258,00;0,0119
2257,00;0,0119
2256,00;0,0119
2255,00;0,0119
2254,00;0,0119
2253,00;0,0119
2252,00;0,0119
2251,00;0,0119
2250,00;0,0119
2249,00;0,0118
2248,00;0,0118
2247,00;0,0118
2246,00;0,0118
2245,00;0,0118
2244,00;0,0118
2243,00;0,0118
2242,00;0,0118
2241,00;0,0118
2240,00;0,0118
2239,00;0,0118
2238,00;0,0118
2237,00;0,0118
2236,00;0,0118
2235,00;0,0117
2234,00;0,0117
2233,00;0,0117
2232,00;0,0117
2231,00;0,0117
2230,00;0,0117
2229,00;0,0117
2228,00;0,0117
2227,00;0,0117
2226,00;0,0117
2225,00;0,0117
2224,00;0,0117
2223,00;0,0117
2222,00;0,0117
2221,00;0,0116
2220,00;0,0116
2219,00;0,0116
2218,00;0,0116
2217,00;0,0116
2216,00;0,0116
2215,00;0,0116
2214,00;0,0116
2213,00;0,0116
2212,00;0,0116
2211,00;0,0116
2210,00;0,0116
2209,00;0,0116
2208,00;0,0116
2207,00;0,0116
2206,00;0,0116
2205,00;0,0116
2204,00;0,0116
2203,00;0,0116
2202,00;0,0116
2201,00;0,0116
2200,00;0,0116
2199,00;0,0116
2198,00;0,0116
2197,00;0,0116
2196,00;0,0116
2195,00;0,0116
2194,00;0,0116
2193,00;0,0116
2192,00;0,0116
2191,00;0,0116
2190,00;0,0115
2189,00;0,0115
2188,00;0,0115
2187,00;0,0115
2186,00;0,0115
2185,00;0,0115
2184,00;0,0115
2183,00;0,0115
2182,00;0,0114
2181,00;0,0114
2180,00;0,0114
2179,00;0,0114
2178,00;0,0114
2177,00;0,0114
2176,00;0,0114
2175,00;0,0113
2174,00;0,0113
2173,00;0,0113
2172,00;0,0113
2171,00;0,0113
2170,00;0,0113
2169,00;0,0113
2168,00;0,0113
2167,00;0,0113
2166,00;0,0112
2165,00;0,0112
2164,00;0,0112
2163,00;0,0112
2162,00;0,0112
2161,00;0,0112
2160,00;0,0111
2159,00;0,0110
2158,00;0,0108
2157,00;0,0107
2156,00;0,0107
2155,00;0,0107
2154,00;0,0107
2153,00;0,0107
2152,00;0,0108
2151,00;0,0108
2150,00;0,0109
2149,00;0,0109
2148,00;0,0109
2147,00;0,0108
2146,00;0,0108
2145,00;0,0107
2144,00;0,0107
2143,00;0,0107
2142,00;0,0107
2141,00;0,0107
2140,00;0,0107
2139,00;0,0108
2138,00;0,0108
2137,00;0,0108
2136,00;0,0107
2135,00;0,0107
2134,00;0,0107
2133,00;0,0106
2132,00;0,0107
2131,00;0,0107
2130,00;0,0107
2129,00;0,0108
2128,00;0,0108
2127,00;0,0108
2126,00;0,0108
2125,00;0,0109
2124,00;0,0109
2123,00;0,0109
2122,00;0,0109
2121,00;0,0109
2120,00;0,0109
2119,00;0,0110
2118,00;0,0110
2117,00;0,0110
2116,00;0,0111
2115,00;0,0111
2114,00;0,0112
2113,00;0,0111
2112,00;0,0111
2111,00;0,0111
2110,00;0,0112
2109,00;0,0112
2108,00;0,0112
2107,00;0,0112
2106,00;0,0112
2105,00;0,0113
2104,00;0,0113
2103,00;0,0113
2102,00;0,0112
2101,00;0,0112
2100,00;0,0112
2099,00;0,0112
2098,00;0,0112
2097,00;0,0112
2096,00;0,0111
2095,00;0,0111
2094,00;0,0110
2093,00;0,0111
2092,00;0,0111
2091,00;0,0111
2090,00;0,0111
2089,00;0,0111
2088,00;0,0111
2087,00;0,0112
2086,00;0,0112
2085,00;0,0112
2084,00;0,0112
2083,00;0,0112
2082,00;0,0112
2081,00;0,0112
2080,00;0,0112
2079,00;0,0113
2078,00;0,0113
2077,00;0,0113
2076,00;0,0113
2075,00;0,0113
2074,00;0,0112
2073,00;0,0112
2072,00;0,0112
2071,00;0,0112
2070,00;0,0113
2069,00;0,0113
2068,00;0,0113
2067,00;0,0113
2066,00;0,0113
2065,00;0,0113
2064,00;0,0113
2063,00;0,0113
2062,00;0,0113
2061,00;0,0113
2060,00;0,0113
2059,00;0,0113
2058,00;0,0113
2057,00;0,0113
2056,00;0,0112
2055,00;0,0113
2054,00;0,0113
2053,00;0,0113
2052,00;0,0113
2051,00;0,0113
2050,00;0,0113
2049,00;0,0113
2048,00;0,0113
2047,00;0,0113
2046,00;0,0113
2045,00;0,0112
2044,00;0,0112
2043,00;0,0112
2042,00;0,0112
2041,00;0,0112
2040,00;0,0112
2039,00;0,0112
2038,00;0,0112
2037,00;0,0112
2036,00;0,0112
2035,00;0,0112
2034,00;0,0112
2033,00;0,0112
2032,00;0,0112
2031,00;0,0111
2030,00;0,0111
2029,00;0,0111
2028,00;0,0111
2027,00;0,0110
2026,00;0,0111
2025,00;0,0111
2024,00;0,0111
2023,00;0,0110
2022,00;0,0110
2021,00;0,0110
2020,00;0,0110
2019,00;0,0110
2018,00;0,0110
2017,00;0,0110
2016,00;0,0109
2015,00;0,0109
2014,00;0,0109
2013,00;0,0109
2012,00;0,0109
2011,00;0,0109
2010,00;0,0109
2009,00;0,0109
2008,00;0,0108
2007,00;0,0108
2006,00;0,0107
2005,00;0,0107
2004,00;0,0107
2003,00;0,0107
2002,00;0,0107
2001,00;0,0107
2000,00;0,0107
1999,00;0,0107
1998,00;0,0107
1997,00;0,0107
1996,00;0,0108
1995,00;0,0108
1994,00;0,0108
1993,00;0,0108
1992,00;0,0108
1991,00;0,0108
1990,00;0,0108
1989,00;0,0108
1988,00;0,0109
1987,00;0,0109
1986,00;0,0109
1985,00;0,0109
1984,00;0,0109
1983,00;0,0109
1982,00;0,0109
1981,00;0,0110
1980,00;0,0110
1979,00;0,0109
1978,00;0,0108
1977,00;0,0108
1976,00;0,0107
1975,00;0,0108
1974,00;0,0108
1973,00;0,0108
1972,00;0,0108
1971,00;0,0107
1970,00;0,0107
1969,00;0,0107
1968,00;0,0107
1967,00;0,0106
1966,00;0,0106
1965,00;0,0106
1964,00;0,0106
1963,00;0,0106
1962,00;0,0106
1961,00;0,0105
1960,00;0,0105
1959,00;0,0105
1958,00;0,0105
1957,00;0,0106
1956,00;0,0106
1955,00;0,0106
1954,00;0,0105
1953,00;0,0105
1952,00;0,0105
1951,00;0,0104
1950,00;0,0104
1949,00;0,0104
1948,00;0,0104
1947,00;0,0104
1946,00;0,0105
1945,00;0,0105
1944,00;0,0105
1943,00;0,0105
1942,00;0,0105
1941,00;0,0105
1940,00;0,0105
1939,00;0,0105
1938,00;0,0105
1937,00;0,0105
1936,00;0,0105
1935,00;0,0105
1934,00;0,0105
1933,00;0,0104
1932,00;0,0105
1931,00;0,0105
1930,00;0,0105
1929,00;0,0105
1928,00;0,0105
1927,00;0,0105
1926,00;0,0105
1925,00;0,0105
1924,00;0,0105
1923,00;0,0105
1922,00;0,0105
1921,00;0,0105
1920,00;0,0105
1919,00;0,0105
1918,00;0,0105
1917,00;0,0105
1916,00;0,0105
1915,00;0,0105
1914,00;0,0105
1913,00;0,0105
1912,00;0,0105
1911,00;0,0105
1910,00;0,0105
1909,00;0,0105
1908,00;0,0105
1907,00;0,0105
1906,00;0,0105
1905,00;0,0105
1904,00;0,0105
1903,00;0,0105
1902,00;0,0105
1901,00;0,0105
1900,00;0,0105
1899,00;0,0105
1898,00;0,0105
1897,00;0,0105
1896,00;0,0105
1895,00;0,0105
1894,00;0,0105
1893,00;0,0105
1892,00;0,0105
1891,00;0,0105
1890,00;0,0105
1889,00;0,0105
1888,00;0,0105
1887,00;0,0104
1886,00;0,0104
1885,00;0,0104
1884,00;0,0104
1883,00;0,0104
1882,00;0,0104
1881,00;0,0104
1880,00;0,0104
1879,00;0,0104
1878,00;0,0104
1877,00;0,0104
1876,00;0,0104
1875,00;0,0104
1874,00;0,0104
1873,00;0,0104
1872,00;0,0104
1871,00;0,0104
1870,00;0,0104
1869,00;0,0104
1868,00;0,0104
1867,00;0,0104
1866,00;0,0104
1865,00;0,0104
1864,00;0,0104
1863,00;0,0104
1862,00;0,0104
1861,00;0,0104
1860,00;0,0104
1859,00;0,0104
1858,00;0,0104
1857,00;0,0104
1856,00;0,0104
1855,00;0,0104
1854,00;0,0104
1853,00;0,0104
1852,00;0,0104
1851,00;0,0104
1850,00;0,0104
1849,00;0,0104
1848,00;0,0104
1847,00;0,0104
1846,00;0,0104
1845,00;0,0104
1844,00;0,0104
1843,00;0,0104
1842,00;0,0104
1841,00;0,0104
1840,00;0,0104
1839,00;0,0104
1838,00;0,0104
1837,00;0,0104
1836,00;0,0104
1835,00;0,0104
1834,00;0,0104
1833,00;0,0104
1832,00;0,0104
1831,00;0,0104
1830,00;0,0104
1829,00;0,0104
1828,00;0,0104
1827,00;0,0104
1826,00;0,0104
1825,00;0,0104
1824,00;0,0104
1823,00;0,0104
1822,00;0,0104
1821,00;0,0104
1820,00;0,0104
1819,00;0,0104
1818,00;0,0104
1817,00;0,0104
1816,00;0,0104
1815,00;0,0104
1814,00;0,0104
1813,00;0,0104
1812,00;0,0104
1811,00;0,0104
1810,00;0,0104
1809,00;0,0104
1808,00;0,0104
1807,00;0,0104
1806,00;0,0104
1805,00;0,0104
1804,00;0,0104
1803,00;0,0104
1802,00;0,0104
1801,00;0,0104
1800,00;0,0104
1799,00;0,0104
1798,00;0,0105
1797,00;0,0105
1796,00;0,0105
1795,00;0,0105
1794,00;0,0105
1793,00;0,0105
1792,00;0,0105
1791,00;0,0105
1790,00;0,0105
1789,00;0,0105
1788,00;0,0105
1787,00;0,0105
1786,00;0,0105
1785,00;0,0105
1784,00;0,0105
1783,00;0,0105
1782,00;0,0105
1781,00;0,0106
1780,00;0,0106
1779,00;0,0106
1778,00;0,0106
1777,00;0,0106
1776,00;0,0106
1775,00;0,0106
1774,00;0,0106
1773,00;0,0106
1772,00;0,0106
1771,00;0,0106
1770,00;0,0106
1769,00;0,0106
1768,00;0,0106
1767,00;0,0106
1766,00;0,0107
1765,00;0,0107
1764,00;0,0107
1763,00;0,0107
1762,00;0,0107
1761,00;0,0107
1760,00;0,0107
1759,00;0,0107
1758,00;0,0107
1757,00;0,0107
1756,00;0,0107
1755,00;0,0107
1754,00;0,0107
1753,00;0,0107
1752,00;0,0108
1751,00;0,0108
1750,00;0,0108
1749,00;0,0108
1748,00;0,0108
1747,00;0,0108
1746,00;0,0108
1745,00;0,0108
1744,00;0,0108
1743,00;0,0108
1742,00;0,0108
1741,00;0,0108
1740,00;0,0109
1739,00;0,0109
1738,00;0,0109
1737,00;0,0109
1736,00;0,0109
1735,00;0,0109
1734,00;0,0109
1733,00;0,0109
1732,00;0,0109
1731,00;0,0109
1730,00;0,0109
1729,00;0,0110
1728,00;0,0110
1727,00;0,0110
1726,00;0,0110
1725,00;0,0110
1724,00;0,0110
1723,00;0,0110
1722,00;0,0110
1721,00;0,0110
1720,00;0,0110
1719,00;0,0110
1718,00;0,0110
1717,00;0,0111
1716,00;0,0111
1715,00;0,0111
1714,00;0,0111
1713,00;0,0111
1712,00;0,0111
1711,00;0,0111
1710,00;0,0111
1709,00;0,0111
1708,00;0,0111
1707,00;0,0111
1706,00;0,0111
1705,00;0,0111
1704,00;0,0111
1703,00;0,0111
1702,00;0,0111
1701,00;0,0111
1700,00;0,0112
1699,00;0,0112
1698,00;0,0112
1697,00;0,0112
1696,00;0,0112
1695,00;0,0112
1694,00;0,0112
1693,00;0,0112
1692,00;0,0112
1691,00;0,0112
1690,00;0,0112
1689,00;0,0112
1688,00;0,0112
1687,00;0,0112
1686,00;0,0113
1685,00;0,0113
1684,00;0,0113
1683,00;0,0113
1682,00;0,0113
1681,00;0,0114
1680,00;0,0114
1679,00;0,0114
1678,00;0,0114
1677,00;0,0114
1676,00;0,0114
1675,00;0,0114
1674,00;0,0114
1673,00;0,0114
1672,00;0,0115
1671,00;0,0115
1670,00;0,0115
1669,00;0,0116
1668,00;0,0116
1667,00;0,0116
1666,00;0,0116
1665,00;0,0116
1664,00;0,0117
1663,00;0,0117
1662,00;0,0117
1661,00;0,0117
1660,00;0,0118
1659,00;0,0118
1658,00;0,0118
1657,00;0,0119
1656,00;0,0119
1655,00;0,0119
1654,00;0,0119
1653,00;0,0120
1652,00;0,0120
1651,00;0,0120
1650,00;0,0120
1649,00;0,0121
1648,00;0,0121
1647,00;0,0122
1646,00;0,0122
1645,00;0,0123
1644,00;0,0123
1643,00;0,0123
1642,00;0,0124
1641,00;0,0124
1640,00;0,0125
1639,00;0,0125
1638,00;0,0125
1637,00;0,0125
1636,00;0,0126
1635,00;0,0126
1634,00;0,0127
1633,00;0,0128
1632,00;0,0128
1631,00;0,0128
1630,00;0,0128
1629,00;0,0128
1628,00;0,0129
1627,00;0,0129
1626,00;0,0130
1625,00;0,0130
1624,00;0,0130
1623,00;0,0131
1622,00;0,0131
1621,00;0,0131
1620,00;0,0131
1619,00;0,0131
1618,00;0,0132
1617,00;0,0132
1616,00;0,0132
1615,00;0,0132
1614,00;0,0133
1613,00;0,0133
1612,00;0,0133
1611,00;0,0133
1610,00;0,0133
1609,00;0,0133
1608,00;0,0133
1607,00;0,0133
1606,00;0,0133
1605,00;0,0134
1604,00;0,0134
1603,00;0,0134
1602,00;0,0134
1601,00;0,0134
1600,00;0,0134
1599,00;0,0134
1598,00;0,0134
1597,00;0,0134
1596,00;0,0134
1595,00;0,0134
1594,00;0,0134
1593,00;0,0134
1592,00;0,0134
1591,00;0,0134
1590,00;0,0134
1589,00;0,0134
1588,00;0,0134
1587,00;0,0134
1586,00;0,0134
1585,00;0,0134
1584,00;0,0134
1583,00;0,0134
1582,00;0,0134
1581,00;0,0134
1580,00;0,0134
1579,00;0,0134
1578,00;0,0134
1577,00;0,0134
1576,00;0,0134
1575,00;0,0134
1574,00;0,0134
1573,00;0,0134
1572,00;0,0134
1571,00;0,0134
1570,00;0,0133
1569,00;0,0133
1568,00;0,0133
1567,00;0,0134
1566,00;0,0134
1565,00;0,0134
1564,00;0,0134
1563,00;0,0134
1562,00;0,0134
1561,00;0,0133
1560,00;0,0133
1559,00;0,0133
1558,00;0,0133
1557,00;0,0133
1556,00;0,0133
1555,00;0,0133
1554,00;0,0133
1553,00;0,0133
1552,00;0,0133
1551,00;0,0133
1550,00;0,0133
1549,00;0,0132
1548,00;0,0132
1547,00;0,0132
1546,00;0,0132
1545,00;0,0132
1544,00;0,0132
1543,00;0,0131
1542,00;0,0131
1541,00;0,0131
1540,00;0,0131
1539,00;0,0131
1538,00;0,0131
1537,00;0,0131
1536,00;0,0131
1535,00;0,0131
1534,00;0,0131
1533,00;0,0131
1532,00;0,0130
1531,00;0,0130
1530,00;0,0130
1529,00;0,0130
1528,00;0,0130
1527,00;0,0130
1526,00;0,0129
1525,00;0,0129
1524,00;0,0129
1523,00;0,0128
1522,00;0,0128
1521,00;0,0128
1520,00;0,0127
1519,00;0,0127
1518,00;0,0127
1517,00;0,0127
1516,00;0,0127
1515,00;0,0126
1514,00;0,0126
1513,00;0,0126
1512,00;0,0126
1511,00;0,0125
1510,00;0,0125
1509,00;0,0125
1508,00;0,0124
1507,00;0,0124
1506,00;0,0123
1505,00;0,0123
1504,00;0,0123
1503,00;0,0123
1502,00;0,0122
1501,00;0,0122
1500,00;0,0122
1499,00;0,0121
1498,00;0,0121
1497,00;0,0120
1496,00;0,0120
1495,00;0,0120
1494,00;0,0120
1493,00;0,0120
1492,00;0,0120
1491,00;0,0120
1490,00;0,0120
1489,00;0,0120
1488,00;0,0119
1487,00;0,0119
1486,00;0,0119
1485,00;0,0119
1484,00;0,0119
1483,00;0,0119
1482,00;0,0118
1481,00;0,0118
1480,00;0,0118
1479,00;0,0117
1478,00;0,0117
1477,00;0,0117
1476,00;0,0117
1475,00;0,0117
1474,00;0,0117
1473,00;0,0117
1472,00;0,0117
1471,00;0,0117
1470,00;0,0117
1469,00;0,0117
1468,00;0,0117
1467,00;0,0117
1466,00;0,0117
1465,00;0,0117
1464,00;0,0117
1463,00;0,0117
1462,00;0,0117
1461,00;0,0117
1460,00;0,0117
1459,00;0,0117
1458,00;0,0117
1457,00;0,0117
1456,00;0,0117
1455,00;0,0117
1454,00;0,0118
1453,00;0,0118
1452,00;0,0119
1451,00;0,0119
1450,00;0,0120
1449,00;0,0120
1448,00;0,0121
1447,00;0,0121
1446,00;0,0121
1445,00;0,0121
1444,00;0,0121
1443,00;0,0121
1442,00;0,0122
1441,00;0,0122
1440,00;0,0122
1439,00;0,0122
1438,00;0,0122
1437,00;0,0122
1436,00;0,0122
1435,00;0,0122
1434,00;0,0122
1433,00;0,0122
1432,00;0,0122
1431,00;0,0122
1430,00;0,0122
1429,00;0,0122
1428,00;0,0122
1427,00;0,0122
1426,00;0,0122
1425,00;0,0122
1424,00;0,0121
1423,00;0,0121
1422,00;0,0121
1421,00;0,0121
1420,00;0,0122
1419,00;0,0122
1418,00;0,0122
1417,00;0,0122
1416,00;0,0122
1415,00;0,0122
1414,00;0,0122
1413,00;0,0122
1412,00;0,0122
1411,00;0,0122
1410,00;0,0122
1409,00;0,0122
1408,00;0,0122
1407,00;0,0122
1406,00;0,0122
1405,00;0,0122
1404,00;0,0122
1403,00;0,0122
1402,00;0,0122
1401,00;0,0122
1400,00;0,0121
1399,00;0,0121
1398,00;0,0121
1397,00;0,0121
1396,00;0,0121
1395,00;0,0122
1394,00;0,0121
1393,00;0,0121
1392,00;0,0121
1391,00;0,0121
1390,00;0,0121
1389,00;0,0121
1388,00;0,0121
1387,00;0,0121
1386,00;0,0121
1385,00;0,0121
1384,00;0,0121
1383,00;0,0121
1382,00;0,0121
1381,00;0,0121
1380,00;0,0121
1379,00;0,0121
1378,00;0,0121
1377,00;0,0120
1376,00;0,0120
1375,00;0,0120
1374,00;0,0120
1373,00;0,0119
1372,00;0,0119
1371,00;0,0119
1370,00;0,0119
1369,00;0,0119
1368,00;0,0119
1367,00;0,0119
1366,00;0,0119
1365,00;0,0119
1364,00;0,0118
1363,00;0,0118
1362,00;0,0118
1361,00;0,0118
1360,00;0,0118
1359,00;0,0118
1358,00;0,0117
1357,00;0,0117
1356,00;0,0117
1355,00;0,0117
1354,00;0,0117
1353,00;0,0117
1352,00;0,0116
1351,00;0,0116
1350,00;0,0116
1349,00;0,0115
1348,00;0,0115
1347,00;0,0115
1346,00;0,0115
1345,00;0,0114
1344,00;0,0114
1343,00;0,0114
1342,00;0,0114
1341,00;0,0114
1340,00;0,0114
1339,00;0,0113
1338,00;0,0113
1337,00;0,0113
1336,00;0,0113
1335,00;0,0112
1334,00;0,0112
1333,00;0,0112
1332,00;0,0112
1331,00;0,0112
1330,00;0,0112
1329,00;0,0111
1328,00;0,0111
1327,00;0,0111
1326,00;0,0111
1325,00;0,0111
1324,00;0,0111
1323,00;0,0111
1322,00;0,0111
1321,00;0,0111
1320,00;0,0110
1319,00;0,0110
1318,00;0,0110
1317,00;0,0110
1316,00;0,0110
1315,00;0,0110
1314,00;0,0110
1313,00;0,0110
1312,00;0,0110
1311,00;0,0109
1310,00;0,0109
1309,00;0,0109
1308,00;0,0109
1307,00;0,0109
1306,00;0,0109
1305,00;0,0109
1304,00;0,0108
1303,00;0,0108
1302,00;0,0108
1301,00;0,0108
1300,00;0,0108
1299,00;0,0108
1298,00;0,0107
1297,00;0,0107
1296,00;0,0107
1295,00;0,0107
1294,00;0,0107
1293,00;0,0107
1292,00;0,0107
1291,00;0,0107
1290,00;0,0107
1289,00;0,0106
1288,00;0,0106
1287,00;0,0106
1286,00;0,0106
1285,00;0,0106
1284,00;0,0106
1283,00;0,0106
1282,00;0,0106
1281,00;0,0105
1280,00;0,0105
1279,00;0,0105
1278,00;0,0105
1277,00;0,0105
1276,00;0,0105
1275,00;0,0105
1274,00;0,0104
1273,00;0,0104
1272,00;0,0104
1271,00;0,0104
1270,00;0,0104
1269,00;0,0104
1268,00;0,0104
1267,00;0,0104
1266,00;0,0104
1265,00;0,0104
1264,00;0,0104
1263,00;0,0104
1262,00;0,0103
1261,00;0,0103
1260,00;0,0103
1259,00;0,0103
1258,00;0,0103
1257,00;0,0103
1256,00;0,0103
1255,00;0,0103
1254,00;0,0103
1253,00;0,0103
1252,00;0,0103
1251,00;0,0103
1250,00;0,0103
1249,00;0,0102
1248,00;0,0102
1247,00;0,0102
1246,00;0,0102
1245,00;0,0102
1244,00;0,0102
1243,00;0,0102
1242,00;0,0102
1241,00;0,0102
1240,00;0,0102
1239,00;0,0102
1238,00;0,0102
1237,00;0,0102
1236,00;0,0102
1235,00;0,0102
1234,00;0,0102
1233,00;0,0102
1232,00;0,0102
1231,00;0,0102
1230,00;0,0102
1229,00;0,0102
1228,00;0,0101
1227,00;0,0101
1226,00;0,0101
1225,00;0,0101
1224,00;0,0101
1223,00;0,0101
1222,00;0,0101
1221,00;0,0101
1220,00;0,0101
1219,00;0,0101
1218,00;0,0101
1217,00;0,0101
1216,00;0,0101
1215,00;0,0101
1214,00;0,0101
1213,00;0,0101
1212,00;0,0101
1211,00;0,0101
1210,00;0,0101
1209,00;0,0101
1208,00;0,0101
1207,00;0,0101
1206,00;0,0101
1205,00;0,0101
1204,00;0,0101
1203,00;0,0101
1202,00;0,0101
1201,00;0,0101
1200,00;0,0101
1199,00;0,0101
1198,00;0,0101
1197,00;0,0101
1196,00;0,0101
1195,00;0,0101
1194,00;0,0101
1193,00;0,0101
1192,00;0,0101
1191,00;0,0101
1190,00;0,0101
1189,00;0,0101
1188,00;0,0101
1187,00;0,0101
1186,00;0,0101
1185,00;0,0101
1184,00;0,0101
1183,00;0,0101
1182,00;0,0101
1181,00;0,0101
1180,00;0,0100
1179,00;0,0101
1178,00;0,0101
1177,00;0,0101
1176,00;0,0101
1175,00;0,0101
1174,00;0,0101
1173,00;0,0101
1172,00;0,0101
1171,00;0,0101
1170,00;0,0101
1169,00;0,0101
1168,00;0,0101
1167,00;0,0101
1166,00;0,0101
1165,00;0,0101
1164,00;0,0101
1163,00;0,0101
1162,00;0,0101
1161,00;0,0101
1160,00;0,0101
1159,00;0,0101
1158,00;0,0101
1157,00;0,0101
1156,00;0,0101
1155,00;0,0101
1154,00;0,0101
1153,00;0,0101
1152,00;0,0102
1151,00;0,0102
1150,00;0,0102
1149,00;0,0103
1148,00;0,0103
1147,00;0,0103
1146,00;0,0103
1145,00;0,0103
1144,00;0,0103
1143,00;0,0103
1142,00;0,0103
1141,00;0,0103
1140,00;0,0103
1139,00;0,0104
1138,00;0,0104
1137,00;0,0104
1136,00;0,0104
1135,00;0,0104
1134,00;0,0104
1133,00;0,0104
1132,00;0,0104
1131,00;0,0104
1130,00;0,0104
1129,00;0,0104
1128,00;0,0104
1127,00;0,0104
1126,00;0,0104
1125,00;0,0104
1124,00;0,0104
1123,00;0,0104
1122,00;0,0104
1121,00;0,0104
1120,00;0,0105
1119,00;0,0105
1118,00;0,0105
1117,00;0,0105
1116,00;0,0104
1115,00;0,0104
1114,00;0,0104
1113,00;0,0104
1112,00;0,0104
1111,00;0,0104
1110,00;0,0104
1109,00;0,0104
1108,00;0,0104
1107,00;0,0104
1106,00;0,0104
1105,00;0,0104
1104,00;0,0104
1103,00;0,0104
1102,00;0,0104
1101,00;0,0104
1100,00;0,0105
1099,00;0,0105
1098,00;0,0105
1097,00;0,0105
1096,00;0,0105
1095,00;0,0105
1094,00;0,0105
1093,00;0,0105
1092,00;0,0105
1091,00;0,0105
1090,00;0,0105
1089,00;0,0105
1088,00;0,0105
1087,00;0,0105
1086,00;0,0105
1085,00;0,0105
1084,00;0,0105
1083,00;0,0106
1082,00;0,0106
1081,00;0,0106
1080,00;0,0106
1079,00;0,0106
1078,00;0,0106
1077,00;0,0107
1076,00;0,0107
1075,00;0,0107
1074,00;0,0107
1073,00;0,0107
1072,00;0,0107
1071,00;0,0107
1070,00;0,0107
1069,00;0,0107
1068,00;0,0107
1067,00;0,0107
1066,00;0,0107
1065,00;0,0107
1064,00;0,0107
1063,00;0,0107
1062,00;0,0107
1061,00;0,0107
1060,00;0,0107
1059,00;0,0108
1058,00;0,0108
1057,00;0,0108
1056,00;0,0108
1055,00;0,0108
1054,00;0,0108
1053,00;0,0108
1052,00;0,0108
1051,00;0,0108
1050,00;0,0108
1049,00;0,0107
1048,00;0,0107
1047,00;0,0107
1046,00;0,0107
1045,00;0,0107
1044,00;0,0107
1043,00;0,0107
1042,00;0,0107
1041,00;0,0107
1040,00;0,0107
1039,00;0,0107
1038,00;0,0107
1037,00;0,0107
1036,00;0,0107
1035,00;0,0107
1034,00;0,0106
1033,00;0,0106
1032,00;0,0106
1031,00;0,0106
1030,00;0,0105
1029,00;0,0105
1028,00;0,0105
1027,00;0,0105
1026,00;0,0105
1025,00;0,0105
1024,00;0,0105
1023,00;0,0104
1022,00;0,0104
1021,00;0,0104
1020,00;0,0104
1019,00;0,0104
1018,00;0,0104
1017,00;0,0104
1016,00;0,0104
1015,00;0,0104
1014,00;0,0103
1013,00;0,0103
1012,00;0,0103
1011,00;0,0103
1010,00;0,0103
1009,00;0,0103
1008,00;0,0103
1007,00;0,0103
1006,00;0,0103
1005,00;0,0102
1004,00;0,0102
1003,00;0,0102
1002,00;0,0102
1001,00;0,0102
1000,00;0,0102
999,00;0,0102
998,00;0,0102
997,00;0,0102
996,00;0,0102
995,00;0,0102
994,00;0,0102
993,00;0,0102
992,00;0,0102
991,00;0,0101
990,00;0,0101
989,00;0,0101
988,00;0,0101
987,00;0,0102
986,00;0,0102
985,00;0,0102
984,00;0,0102
983,00;0,0102
982,00;0,0102
981,00;0,0102
980,00;0,0102
979,00;0,0102
978,00;0,0102
977,00;0,0102
976,00;0,0102
975,00;0,0102
974,00;0,0102
973,00;0,0102
972,00;0,0102
971,00;0,0102
970,00;0,0102
969,00;0,0101
968,00;0,0101
967,00;0,0101
966,00;0,0101
965,00;0,0101
964,00;0,0101
963,00;0,0101
962,00;0,0101
961,00;0,0101
960,00;0,0101
959,00;0,0101
958,00;0,0101
957,00;0,0101
956,00;0,0101
955,00;0,0101
954,00;0,0101
953,00;0,0101
952,00;0,0101
951,00;0,0101
950,00;0,0101
949,00;0,0101
948,00;0,0101
947,00;0,0101
946,00;0,0101
945,00;0,0101
944,00;0,0101
943,00;0,0101
942,00;0,0101
941,00;0,0101
940,00;0,0101
939,00;0,0101
938,00;0,0101
937,00;0,0101
936,00;0,0101
935,00;0,0101
934,00;0,0101
933,00;0,0101
932,00;0,0101
931,00;0,0101
930,00;0,0101
929,00;0,0101
928,00;0,0101
927,00;0,0101
926,00;0,0101
925,00;0,0101
924,00;0,0101
923,00;0,0101
922,00;0,0101
921,00;0,0101
920,00;0,0101
919,00;0,0101
918,00;0,0101
917,00;0,0101
916,00;0,0101
915,00;0,0101
914,00;0,0101
913,00;0,0101
912,00;0,0101
911,00;0,0101
910,00;0,0101
909,00;0,0101
908,00;0,0101
907,00;0,0101
906,00;0,0101
905,00;0,0101
904,00;0,0101
903,00;0,0101
902,00;0,0101
901,00;0,0101
900,00;0,0101
899,00;0,0101
898,00;0,0101
897,00;0,0101
896,00;0,0101
895,00;0,0101
894,00;0,0101
893,00;0,0101
892,00;0,0101
891,00;0,0101
890,00;0,0101
889,00;0,0101
888,00;0,0101
887,00;0,0101
886,00;0,0101
885,00;0,0101
884,00;0,0101
883,00;0,0101
882,00;0,0101
881,00;0,0101
880,00;0,0101
879,00;0,0101
878,00;0,0101
877,00;0,0101
876,00;0,0101
875,00;0,0101
874,00;0,0101
873,00;0,0101
872,00;0,0101
871,00;0,0101
870,00;0,0101
869,00;0,0101
868,00;0,0101
867,00;0,0101
866,00;0,0101
865,00;0,0101
864,00;0,0101
863,00;0,0101
862,00;0,0101
861,00;0,0101
860,00;0,0101
859,00;0,0101
858,00;0,0101
857,00;0,0101
856,00;0,0101
855,00;0,0101
854,00;0,0101
853,00;0,0101
852,00;0,0101
851,00;0,0101
850,00;0,0101
849,00;0,0101
848,00;0,0101
847,00;0,0101
846,00;0,0101
845,00;0,0100
844,00;0,0100
843,00;0,0101
842,00;0,0101
841,00;0,0101
840,00;0,0101
839,00;0,0101
838,00;0,0101
837,00;0,0101
836,00;0,0101
835,00;0,0101
834,00;0,0101
833,00;0,0101
832,00;0,0101
831,00;0,0102
830,00;0,0102
829,00;0,0102
828,00;0,0102
827,00;0,0102
826,00;0,0101
825,00;0,0101
824,00;0,0100
823,00;0,0100
822,00;0,0100
821,00;0,0100
820,00;0,0101
819,00;0,0102
818,00;0,0102
817,00;0,0101
816,00;0,0101
815,00;0,0100
814,00;0,0100
813,00;0,0100
812,00;0,0100
811,00;0,0100
810,00;0,0101
809,00;0,0101
808,00;0,0101
807,00;0,0101
806,00;0,0101
805,00;0,0101
804,00;0,0101
803,00;0,0100
802,00;0,0100
801,00;0,0100
800,00;0,0100
799,00;0,0101
798,00;0,0101
797,00;0,0101
796,00;0,0100
795,00;0,0100
794,00;0,0100
793,00;0,0101
792,00;0,0101
791,00;0,0101
790,00;0,0101
789,00;0,0100
788,00;0,0099
787,00;0,0099
786,00;0,0099
785,00;0,0100
784,00;0,0101
783,00;0,0101
782,00;0,0102
781,00;0,0102
780,00;0,0102
779,00;0,0101
778,00;0,0101
777,00;0,0101
776,00;0,0100
775,00;0,0100
774,00;0,0100
773,00;0,0099
772,00;0,0099
771,00;0,0100
770,00;0,0100
769,00;0,0101
768,00;0,0101
767,00;0,0100
766,00;0,0100
765,00;0,0100
764,00;0,0100
763,00;0,0099
762,00;0,0099
761,00;0,0099
760,00;0,0100
759,00;0,0100
758,00;0,0099
757,00;0,0098
756,00;0,0097
755,00;0,0097
754,00;0,0097
753,00;0,0098
752,00;0,0098
751,00;0,0099
750,00;0,0100
749,00;0,0101
748,00;0,0103
747,00;0,0105
746,00;0,0108
745,00;0,0112
744,00;0,0116
743,00;0,0120
742,00;0,0125
741,00;0,0130
740,00;0,0136
739,00;0,0142
738,00;0,0149
737,00;0,0156
736,00;0,0164
735,00;0,0172
734,00;0,0180
733,00;0,0187
732,00;0,0194
731,00;0,0200
730,00;0,0205
729,00;0,0208
728,00;0,0210
727,00;0,0209
726,00;0,0206
725,00;0,0202
724,00;0,0197
723,00;0,0192
722,00;0,0187
721,00;0,0183
720,00;0,0180
719,00;0,0178
718,00;0,0177
717,00;0,0178
716,00;0,0180
715,00;0,0185
714,00;0,0191
713,00;0,0197
712,00;0,0204
711,00;0,0210
710,00;0,0215
709,00;0,0222
708,00;0,0227
707,00;0,0232
706,00;0,0236
705,00;0,0240
704,00;0,0246
703,00;0,0253
702,00;0,0261
701,00;0,0269
700,00;0,0277
699,00;0,0284
698,00;0,0290
697,00;0,0298
696,00;0,0304
695,00;0,0309
694,00;0,0313
693,00;0,0314
692,00;0,0314
691,00;0,0311
690,00;0,0306
689,00;0,0298
688,00;0,0287
687,00;0,0273
686,00;0,0257
685,00;0,0240
684,00;0,0222
683,00;0,0205
682,00;0,0188
681,00;0,0173
680,00;0,0160
679,00;0,0147
678,00;0,0136
677,00;0,0126
676,00;0,0119
675,00;0,0114
674,00;0,0110
673,00;0,0106
672,00;0,0102
671,00;0,0098
670,00;0,0094
669,00;0,0092
668,00;0,0093
667,00;0,0094
666,00;0,0094
665,00;0,0093
664,00;0,0093
663,00;0,0093
662,00;0,0094
661,00;0,0097
660,00;0,0100
659,00;0,0103
658,00;0,0106
657,00;0,0110
656,00;0,0117
655,00;0,0125
654,00;0,0134
653,00;0,0142
652,00;0,0151
651,00;0,0160
650,00;0,0170
649,00;0,0180
648,00;0,0192
647,00;0,0204
646,00;0,0216
645,00;0,0228
644,00;0,0240
643,00;0,0251
642,00;0,0262
641,00;0,0274
640,00;0,0287
639,00;0,0299
638,00;0,0310
637,00;0,0319
636,00;0,0328
635,00;0,0333
634,00;0,0336
633,00;0,0337
632,00;0,0335
631,00;0,0330
630,00;0,0321
629,00;0,0311
628,00;0,0301
627,00;0,0292
626,00;0,0283
625,00;0,0275
624,00;0,0268
623,00;0,0261
622,00;0,0254
621,00;0,0249
620,00;0,0244
619,00;0,0240
618,00;0,0235
617,00;0,0230
616,00;0,0225
615,00;0,0219
614,00;0,0213
613,00;0,0207
612,00;0,0202
611,00;0,0198
610,00;0,0192
609,00;0,0186
608,00;0,0182
607,00;0,0179
606,00;0,0175
605,00;0,0170
604,00;0,0164
603,00;0,0158
602,00;0,0153
601,00;0,0148
600,00;0,0144
599,00;0,0139
598,00;0,0134
597,00;0,0129
596,00;0,0125
595,00;0,0123
594,00;0,0121
593,00;0,0122
592,00;0,0123
591,00;0,0124
590,00;0,0125
589,00;0,0126
588,00;0,0128
587,00;0,0128
586,00;0,0126
585,00;0,0125
584,00;0,0126
583,00;0,0128
582,00;0,0129
581,00;0,0129
580,00;0,0127
579,00;0,0122
578,00;0,0113
577,00;0,0105
576,00;0,0098
575,00;0,0092
574,00;0,0087
573,00;0,0083
572,00;0,0082
571,00;0,0082
570,00;0,0084
569,00;0,0088
568,00;0,0095
567,00;0,0102
566,00;0,0110
565,00;0,0121
564,00;0,0134
563,00;0,0147
562,00;0,0158
561,00;0,0170
560,00;0,0184
559,00;0,0199
558,00;0,0215
557,00;0,0233
556,00;0,0251
555,00;0,0267
554,00;0,0277
553,00;0,0285
552,00;0,0291
551,00;0,0296
550,00;0,0300
549,00;0,0305
548,00;0,0309
547,00;0,0311
546,00;0,0309
545,00;0,0304
544,00;0,0296
543,00;0,0287
542,00;0,0275
541,00;0,0263
540,00;0,0252
539,00;0,0243
538,00;0,0232
537,00;0,0220
536,00;0,0204
535,00;0,0185
534,00;0,0165
533,00;0,0147
532,00;0,0131
531,00;0,0116
530,00;0,0099
529,00;0,0083
528,00;0,0068
527,00;0,0052
526,00;0,0034
525,00;0,0014
524,00;-0,0008
523,00;-0,0032
522,00;-0,0059
521,00;-0,0087
520,00;-0,0115
519,00;-0,0143
518,00;-0,0172
517,00;-0,0200
516,00;-0,0227
515,00;-0,0255
514,00;-0,0282
513,00;-0,0306
512,00;-0,0327
511,00;-0,0348
510,00;-0,0370
509,00;-0,0393
508,00;-0,0415
507,00;-0,0439
506,00;-0,0464
505,00;-0,0488
504,00;-0,0510
503,00;-0,0532
502,00;-0,0554
501,00;-0,0573
500,00;-0,0587
