Создан как новый массив данных;Образец 010 полученный BalashovM Дата пятница, марта 03 2023
cm-1;A
4000,00;0,0043
3999,00;0,0043
3998,00;0,0043
3997,00;0,0043
3996,00;0,0043
3995,00;0,0043
3994,00;0,0043
3993,00;0,0043
3992,00;0,0043
3991,00;0,0043
3990,00;0,0043
3989,00;0,0043
3988,00;0,0043
3987,00;0,0044
3986,00;0,0044
3985,00;0,0044
3984,00;0,0044
3983,00;0,0043
3982,00;0,0043
3981,00;0,0043
3980,00;0,0043
3979,00;0,0043
3978,00;0,0043
3977,00;0,0043
3976,00;0,0043
3975,00;0,0043
3974,00;0,0043
3973,00;0,0043
3972,00;0,0043
3971,00;0,0043
3970,00;0,0044
3969,00;0,0044
3968,00;0,0043
3967,00;0,0043
3966,00;0,0043
3965,00;0,0043
3964,00;0,0043
3963,00;0,0043
3962,00;0,0043
3961,00;0,0043
3960,00;0,0043
3959,00;0,0043
3958,00;0,0044
3957,00;0,0044
3956,00;0,0044
3955,00;0,0044
3954,00;0,0044
3953,00;0,0044
3952,00;0,0043
3951,00;0,0043
3950,00;0,0043
3949,00;0,0043
3948,00;0,0044
3947,00;0,0044
3946,00;0,0043
3945,00;0,0043
3944,00;0,0043
3943,00;0,0043
3942,00;0,0043
3941,00;0,0043
3940,00;0,0043
3939,00;0,0044
3938,00;0,0044
3937,00;0,0044
3936,00;0,0044
3935,00;0,0044
3934,00;0,0044
3933,00;0,0044
3932,00;0,0044
3931,00;0,0043
3930,00;0,0043
3929,00;0,0043
3928,00;0,0044
3927,00;0,0044
3926,00;0,0044
3925,00;0,0044
3924,00;0,0044
3923,00;0,0044
3922,00;0,0044
3921,00;0,0044
3920,00;0,0044
3919,00;0,0044
3918,00;0,0044
3917,00;0,0044
3916,00;0,0044
3915,00;0,0044
3914,00;0,0044
3913,00;0,0044
3912,00;0,0044
3911,00;0,0044
3910,00;0,0044
3909,00;0,0044
3908,00;0,0044
3907,00;0,0044
3906,00;0,0044
3905,00;0,0044
3904,00;0,0044
3903,00;0,0044
3902,00;0,0044
3901,00;0,0044
3900,00;0,0044
3899,00;0,0044
3898,00;0,0044
3897,00;0,0044
3896,00;0,0044
3895,00;0,0044
3894,00;0,0044
3893,00;0,0044
3892,00;0,0044
3891,00;0,0044
3890,00;0,0044
3889,00;0,0044
3888,00;0,0044
3887,00;0,0044
3886,00;0,0044
3885,00;0,0044
3884,00;0,0044
3883,00;0,0044
3882,00;0,0044
3881,00;0,0044
3880,00;0,0044
3879,00;0,0044
3878,00;0,0044
3877,00;0,0044
3876,00;0,0044
3875,00;0,0044
3874,00;0,0044
3873,00;0,0044
3872,00;0,0044
3871,00;0,0044
3870,00;0,0044
3869,00;0,0044
3868,00;0,0044
3867,00;0,0044
3866,00;0,0044
3865,00;0,0044
3864,00;0,0044
3863,00;0,0044
3862,00;0,0044
3861,00;0,0044
3860,00;0,0044
3859,00;0,0044
3858,00;0,0044
3857,00;0,0044
3856,00;0,0044
3855,00;0,0044
3854,00;0,0044
3853,00;0,0044
3852,00;0,0044
3851,00;0,0044
3850,00;0,0044
3849,00;0,0044
3848,00;0,0044
3847,00;0,0044
3846,00;0,0044
3845,00;0,0044
3844,00;0,0044
3843,00;0,0044
3842,00;0,0044
3841,00;0,0044
3840,00;0,0044
3839,00;0,0044
3838,00;0,0044
3837,00;0,0044
3836,00;0,0044
3835,00;0,0044
3834,00;0,0044
3833,00;0,0044
3832,00;0,0044
3831,00;0,0044
3830,00;0,0044
3829,00;0,0044
3828,00;0,0044
3827,00;0,0044
3826,00;0,0044
3825,00;0,0044
3824,00;0,0044
3823,00;0,0044
3822,00;0,0044
3821,00;0,0044
3820,00;0,0044
3819,00;0,0044
3818,00;0,0044
3817,00;0,0044
3816,00;0,0044
3815,00;0,0044
3814,00;0,0044
3813,00;0,0044
3812,00;0,0044
3811,00;0,0044
3810,00;0,0044
3809,00;0,0044
3808,00;0,0044
3807,00;0,0044
3806,00;0,0044
3805,00;0,0044
3804,00;0,0044
3803,00;0,0044
3802,00;0,0044
3801,00;0,0044
3800,00;0,0044
3799,00;0,0044
3798,00;0,0044
3797,00;0,0044
3796,00;0,0044
3795,00;0,0044
3794,00;0,0044
3793,00;0,0044
3792,00;0,0044
3791,00;0,0044
3790,00;0,0044
3789,00;0,0044
3788,00;0,0044
3787,00;0,0044
3786,00;0,0044
3785,00;0,0044
3784,00;0,0044
3783,00;0,0044
3782,00;0,0044
3781,00;0,0044
3780,00;0,0044
3779,00;0,0044
3778,00;0,0044
3777,00;0,0044
3776,00;0,0044
3775,00;0,0044
3774,00;0,0044
3773,00;0,0044
3772,00;0,0044
3771,00;0,0044
3770,00;0,0044
3769,00;0,0044
3768,00;0,0044
3767,00;0,0044
3766,00;0,0044
3765,00;0,0044
3764,00;0,0044
3763,00;0,0044
3762,00;0,0044
3761,00;0,0044
3760,00;0,0044
3759,00;0,0044
3758,00;0,0044
3757,00;0,0044
3756,00;0,0044
3755,00;0,0044
3754,00;0,0045
3753,00;0,0045
3752,00;0,0045
3751,00;0,0045
3750,00;0,0045
3749,00;0,0045
3748,00;0,0045
3747,00;0,0044
3746,00;0,0044
3745,00;0,0044
3744,00;0,0044
3743,00;0,0044
3742,00;0,0044
3741,00;0,0044
3740,00;0,0044
3739,00;0,0044
3738,00;0,0044
3737,00;0,0044
3736,00;0,0044
3735,00;0,0044
3734,00;0,0044
3733,00;0,0044
3732,00;0,0044
3731,00;0,0044
3730,00;0,0044
3729,00;0,0044
3728,00;0,0044
3727,00;0,0044
3726,00;0,0044
3725,00;0,0044
3724,00;0,0044
3723,00;0,0044
3722,00;0,0044
3721,00;0,0044
3720,00;0,0044
3719,00;0,0044
3718,00;0,0044
3717,00;0,0044
3716,00;0,0044
3715,00;0,0044
3714,00;0,0043
3713,00;0,0043
3712,00;0,0043
3711,00;0,0043
3710,00;0,0043
3709,00;0,0043
3708,00;0,0043
3707,00;0,0043
3706,00;0,0043
3705,00;0,0043
3704,00;0,0043
3703,00;0,0043
3702,00;0,0043
3701,00;0,0043
3700,00;0,0043
3699,00;0,0043
3698,00;0,0043
3697,00;0,0043
3696,00;0,0043
3695,00;0,0043
3694,00;0,0043
3693,00;0,0043
3692,00;0,0043
3691,00;0,0043
3690,00;0,0043
3689,00;0,0043
3688,00;0,0043
3687,00;0,0043
3686,00;0,0044
3685,00;0,0044
3684,00;0,0044
3683,00;0,0044
3682,00;0,0044
3681,00;0,0044
3680,00;0,0044
3679,00;0,0044
3678,00;0,0044
3677,00;0,0044
3676,00;0,0044
3675,00;0,0044
3674,00;0,0044
3673,00;0,0044
3672,00;0,0044
3671,00;0,0044
3670,00;0,0044
3669,00;0,0044
3668,00;0,0044
3667,00;0,0044
3666,00;0,0044
3665,00;0,0044
3664,00;0,0044
3663,00;0,0044
3662,00;0,0044
3661,00;0,0044
3660,00;0,0045
3659,00;0,0045
3658,00;0,0045
3657,00;0,0045
3656,00;0,0045
3655,00;0,0045
3654,00;0,0045
3653,00;0,0045
3652,00;0,0045
3651,00;0,0046
3650,00;0,0046
3649,00;0,0046
3648,00;0,0046
3647,00;0,0046
3646,00;0,0046
3645,00;0,0046
3644,00;0,0046
3643,00;0,0046
3642,00;0,0046
3641,00;0,0046
3640,00;0,0046
3639,00;0,0046
3638,00;0,0047
3637,00;0,0047
3636,00;0,0047
3635,00;0,0047
3634,00;0,0047
3633,00;0,0047
3632,00;0,0047
3631,00;0,0047
3630,00;0,0048
3629,00;0,0048
3628,00;0,0048
3627,00;0,0048
3626,00;0,0048
3625,00;0,0048
3624,00;0,0048
3623,00;0,0049
3622,00;0,0049
3621,00;0,0049
3620,00;0,0049
3619,00;0,0049
3618,00;0,0049
3617,00;0,0049
3616,00;0,0050
3615,00;0,0050
3614,00;0,0050
3613,00;0,0050
3612,00;0,0050
3611,00;0,0050
3610,00;0,0050
3609,00;0,0051
3608,00;0,0051
3607,00;0,0051
3606,00;0,0051
3605,00;0,0051
3604,00;0,0051
3603,00;0,0052
3602,00;0,0052
3601,00;0,0052
3600,00;0,0052
3599,00;0,0052
3598,00;0,0052
3597,00;0,0052
3596,00;0,0052
3595,00;0,0053
3594,00;0,0053
3593,00;0,0053
3592,00;0,0053
3591,00;0,0053
3590,00;0,0053
3589,00;0,0053
3588,00;0,0054
3587,00;0,0054
3586,00;0,0054
3585,00;0,0054
3584,00;0,0054
3583,00;0,0054
3582,00;0,0054
3581,00;0,0055
3580,00;0,0055
3579,00;0,0055
3578,00;0,0055
3577,00;0,0055
3576,00;0,0055
3575,00;0,0055
3574,00;0,0056
3573,00;0,0056
3572,00;0,0056
3571,00;0,0056
3570,00;0,0056
3569,00;0,0056
3568,00;0,0056
3567,00;0,0057
3566,00;0,0057
3565,00;0,0057
3564,00;0,0057
3563,00;0,0057
3562,00;0,0057
3561,00;0,0057
3560,00;0,0058
3559,00;0,0058
3558,00;0,0058
3557,00;0,0058
3556,00;0,0058
3555,00;0,0058
3554,00;0,0058
3553,00;0,0059
3552,00;0,0059
3551,00;0,0059
3550,00;0,0059
3549,00;0,0059
3548,00;0,0059
3547,00;0,0059
3546,00;0,0060
3545,00;0,0060
3544,00;0,0060
3543,00;0,0060
3542,00;0,0060
3541,00;0,0060
3540,00;0,0061
3539,00;0,0061
3538,00;0,0061
3537,00;0,0061
3536,00;0,0061
3535,00;0,0061
3534,00;0,0061
3533,00;0,0061
3532,00;0,0062
3531,00;0,0062
3530,00;0,0062
3529,00;0,0062
3528,00;0,0062
3527,00;0,0062
3526,00;0,0062
3525,00;0,0062
3524,00;0,0063
3523,00;0,0063
3522,00;0,0063
3521,00;0,0063
3520,00;0,0063
3519,00;0,0063
3518,00;0,0064
3517,00;0,0064
3516,00;0,0064
3515,00;0,0064
3514,00;0,0064
3513,00;0,0064
3512,00;0,0064
3511,00;0,0065
3510,00;0,0065
3509,00;0,0065
3508,00;0,0065
3507,00;0,0065
3506,00;0,0065
3505,00;0,0065
3504,00;0,0065
3503,00;0,0066
3502,00;0,0066
3501,00;0,0066
3500,00;0,0066
3499,00;0,0066
3498,00;0,0066
3497,00;0,0066
3496,00;0,0066
3495,00;0,0067
3494,00;0,0067
3493,00;0,0067
3492,00;0,0067
3491,00;0,0067
3490,00;0,0067
3489,00;0,0067
3488,00;0,0067
3487,00;0,0068
3486,00;0,0068
3485,00;0,0068
3484,00;0,0068
3483,00;0,0068
3482,00;0,0068
3481,00;0,0068
3480,00;0,0068
3479,00;0,0069
3478,00;0,0069
3477,00;0,0069
3476,00;0,0069
3475,00;0,0069
3474,00;0,0069
3473,00;0,0069
3472,00;0,0069
3471,00;0,0069
3470,00;0,0070
3469,00;0,0070
3468,00;0,0070
3467,00;0,0070
3466,00;0,0070
3465,00;0,0070
3464,00;0,0070
3463,00;0,0070
3462,00;0,0070
3461,00;0,0070
3460,00;0,0071
3459,00;0,0071
3458,00;0,0071
3457,00;0,0071
3456,00;0,0071
3455,00;0,0071
3454,00;0,0071
3453,00;0,0071
3452,00;0,0072
3451,00;0,0072
3450,00;0,0072
3449,00;0,0072
3448,00;0,0072
3447,00;0,0072
3446,00;0,0072
3445,00;0,0072
3444,00;0,0073
3443,00;0,0073
3442,00;0,0073
3441,00;0,0073
3440,00;0,0073
3439,00;0,0073
3438,00;0,0073
3437,00;0,0074
3436,00;0,0074
3435,00;0,0074
3434,00;0,0074
3433,00;0,0074
3432,00;0,0074
3431,00;0,0074
3430,00;0,0074
3429,00;0,0074
3428,00;0,0074
3427,00;0,0075
3426,00;0,0075
3425,00;0,0075
3424,00;0,0075
3423,00;0,0075
3422,00;0,0075
3421,00;0,0075
3420,00;0,0075
3419,00;0,0076
3418,00;0,0076
3417,00;0,0076
3416,00;0,0076
3415,00;0,0076
3414,00;0,0076
3413,00;0,0076
3412,00;0,0076
3411,00;0,0076
3410,00;0,0076
3409,00;0,0076
3408,00;0,0077
3407,00;0,0077
3406,00;0,0077
3405,00;0,0077
3404,00;0,0077
3403,00;0,0077
3402,00;0,0077
3401,00;0,0077
3400,00;0,0077
3399,00;0,0077
3398,00;0,0078
3397,00;0,0078
3396,00;0,0078
3395,00;0,0078
3394,00;0,0078
3393,00;0,0078
3392,00;0,0078
3391,00;0,0078
3390,00;0,0078
3389,00;0,0078
3388,00;0,0078
3387,00;0,0078
3386,00;0,0079
3385,00;0,0079
3384,00;0,0079
3383,00;0,0079
3382,00;0,0079
3381,00;0,0079
3380,00;0,0079
3379,00;0,0079
3378,00;0,0079
3377,00;0,0079
3376,00;0,0079
3375,00;0,0080
3374,00;0,0080
3373,00;0,0080
3372,00;0,0080
3371,00;0,0080
3370,00;0,0080
3369,00;0,0080
3368,00;0,0080
3367,00;0,0080
3366,00;0,0080
3365,00;0,0080
3364,00;0,0080
3363,00;0,0080
3362,00;0,0080
3361,00;0,0080
3360,00;0,0080
3359,00;0,0081
3358,00;0,0081
3357,00;0,0081
3356,00;0,0081
3355,00;0,0081
3354,00;0,0081
3353,00;0,0081
3352,00;0,0081
3351,00;0,0081
3350,00;0,0081
3349,00;0,0081
3348,00;0,0081
3347,00;0,0081
3346,00;0,0081
3345,00;0,0081
3344,00;0,0081
3343,00;0,0081
3342,00;0,0082
3341,00;0,0082
3340,00;0,0082
3339,00;0,0082
3338,00;0,0082
3337,00;0,0082
3336,00;0,0082
3335,00;0,0082
3334,00;0,0082
3333,00;0,0082
3332,00;0,0082
3331,00;0,0082
3330,00;0,0082
3329,00;0,0082
3328,00;0,0082
3327,00;0,0082
3326,00;0,0082
3325,00;0,0082
3324,00;0,0082
3323,00;0,0082
3322,00;0,0082
3321,00;0,0082
3320,00;0,0083
3319,00;0,0083
3318,00;0,0083
3317,00;0,0083
3316,00;0,0082
3315,00;0,0082
3314,00;0,0082
3313,00;0,0083
3312,00;0,0083
3311,00;0,0083
3310,00;0,0083
3309,00;0,0083
3308,00;0,0083
3307,00;0,0083
3306,00;0,0083
3305,00;0,0083
3304,00;0,0083
3303,00;0,0083
3302,00;0,0083
3301,00;0,0083
3300,00;0,0083
3299,00;0,0083
3298,00;0,0083
3297,00;0,0083
3296,00;0,0083
3295,00;0,0083
3294,00;0,0083
3293,00;0,0083
3292,00;0,0083
3291,00;0,0083
3290,00;0,0083
3289,00;0,0083
3288,00;0,0083
3287,00;0,0083
3286,00;0,0083
3285,00;0,0083
3284,00;0,0084
3283,00;0,0084
3282,00;0,0084
3281,00;0,0084
3280,00;0,0084
3279,00;0,0084
3278,00;0,0084
3277,00;0,0084
3276,00;0,0084
3275,00;0,0084
3274,00;0,0084
3273,00;0,0084
3272,00;0,0084
3271,00;0,0084
3270,00;0,0084
3269,00;0,0084
3268,00;0,0084
3267,00;0,0084
3266,00;0,0084
3265,00;0,0085
3264,00;0,0085
3263,00;0,0085
3262,00;0,0085
3261,00;0,0085
3260,00;0,0085
3259,00;0,0085
3258,00;0,0085
3257,00;0,0085
3256,00;0,0085
3255,00;0,0085
3254,00;0,0085
3253,00;0,0085
3252,00;0,0085
3251,00;0,0085
3250,00;0,0085
3249,00;0,0086
3248,00;0,0086
3247,00;0,0086
3246,00;0,0086
3245,00;0,0086
3244,00;0,0086
3243,00;0,0085
3242,00;0,0085
3241,00;0,0085
3240,00;0,0086
3239,00;0,0086
3238,00;0,0086
3237,00;0,0086
3236,00;0,0086
3235,00;0,0086
3234,00;0,0086
3233,00;0,0086
3232,00;0,0087
3231,00;0,0087
3230,00;0,0087
3229,00;0,0087
3228,00;0,0087
3227,00;0,0087
3226,00;0,0087
3225,00;0,0087
3224,00;0,0087
3223,00;0,0087
3222,00;0,0087
3221,00;0,0087
3220,00;0,0087
3219,00;0,0087
3218,00;0,0087
3217,00;0,0087
3216,00;0,0087
3215,00;0,0087
3214,00;0,0087
3213,00;0,0087
3212,00;0,0088
3211,00;0,0088
3210,00;0,0088
3209,00;0,0088
3208,00;0,0088
3207,00;0,0088
3206,00;0,0088
3205,00;0,0088
3204,00;0,0088
3203,00;0,0088
3202,00;0,0088
3201,00;0,0088
3200,00;0,0088
3199,00;0,0088
3198,00;0,0088
3197,00;0,0088
3196,00;0,0088
3195,00;0,0088
3194,00;0,0089
3193,00;0,0089
3192,00;0,0089
3191,00;0,0089
3190,00;0,0089
3189,00;0,0089
3188,00;0,0089
3187,00;0,0089
3186,00;0,0089
3185,00;0,0089
3184,00;0,0090
3183,00;0,0089
3182,00;0,0089
3181,00;0,0089
3180,00;0,0089
3179,00;0,0089
3178,00;0,0089
3177,00;0,0090
3176,00;0,0090
3175,00;0,0090
3174,00;0,0090
3173,00;0,0090
3172,00;0,0090
3171,00;0,0090
3170,00;0,0090
3169,00;0,0090
3168,00;0,0090
3167,00;0,0090
3166,00;0,0090
3165,00;0,0090
3164,00;0,0090
3163,00;0,0091
3162,00;0,0091
3161,00;0,0091
3160,00;0,0090
3159,00;0,0090
3158,00;0,0090
3157,00;0,0090
3156,00;0,0090
3155,00;0,0090
3154,00;0,0090
3153,00;0,0090
3152,00;0,0090
3151,00;0,0090
3150,00;0,0090
3149,00;0,0090
3148,00;0,0090
3147,00;0,0090
3146,00;0,0090
3145,00;0,0090
3144,00;0,0090
3143,00;0,0090
3142,00;0,0090
3141,00;0,0090
3140,00;0,0090
3139,00;0,0090
3138,00;0,0090
3137,00;0,0090
3136,00;0,0090
3135,00;0,0090
3134,00;0,0089
3133,00;0,0090
3132,00;0,0090
3131,00;0,0090
3130,00;0,0090
3129,00;0,0090
3128,00;0,0090
3127,00;0,0090
3126,00;0,0089
3125,00;0,0089
3124,00;0,0089
3123,00;0,0089
3122,00;0,0089
3121,00;0,0089
3120,00;0,0089
3119,00;0,0089
3118,00;0,0089
3117,00;0,0089
3116,00;0,0089
3115,00;0,0089
3114,00;0,0089
3113,00;0,0089
3112,00;0,0089
3111,00;0,0089
3110,00;0,0089
3109,00;0,0089
3108,00;0,0089
3107,00;0,0089
3106,00;0,0089
3105,00;0,0089
3104,00;0,0089
3103,00;0,0089
3102,00;0,0089
3101,00;0,0089
3100,00;0,0089
3099,00;0,0089
3098,00;0,0089
3097,00;0,0089
3096,00;0,0089
3095,00;0,0089
3094,00;0,0089
3093,00;0,0089
3092,00;0,0089
3091,00;0,0089
3090,00;0,0089
3089,00;0,0089
3088,00;0,0089
3087,00;0,0089
3086,00;0,0089
3085,00;0,0088
3084,00;0,0088
3083,00;0,0088
3082,00;0,0088
3081,00;0,0088
3080,00;0,0088
3079,00;0,0088
3078,00;0,0088
3077,00;0,0088
3076,00;0,0088
3075,00;0,0088
3074,00;0,0088
3073,00;0,0088
3072,00;0,0088
3071,00;0,0088
3070,00;0,0088
3069,00;0,0088
3068,00;0,0088
3067,00;0,0088
3066,00;0,0088
3065,00;0,0088
3064,00;0,0088
3063,00;0,0088
3062,00;0,0088
3061,00;0,0088
3060,00;0,0088
3059,00;0,0088
3058,00;0,0088
3057,00;0,0088
3056,00;0,0088
3055,00;0,0088
3054,00;0,0087
3053,00;0,0087
3052,00;0,0087
3051,00;0,0087
3050,00;0,0087
3049,00;0,0087
3048,00;0,0087
3047,00;0,0087
3046,00;0,0087
3045,00;0,0087
3044,00;0,0087
3043,00;0,0087
3042,00;0,0087
3041,00;0,0087
3040,00;0,0087
3039,00;0,0087
3038,00;0,0087
3037,00;0,0087
3036,00;0,0086
3035,00;0,0086
3034,00;0,0086
3033,00;0,0086
3032,00;0,0086
3031,00;0,0086
3030,00;0,0086
3029,00;0,0086
3028,00;0,0086
3027,00;0,0086
3026,00;0,0086
3025,00;0,0086
3024,00;0,0086
3023,00;0,0086
3022,00;0,0086
3021,00;0,0086
3020,00;0,0086
3019,00;0,0086
3018,00;0,0086
3017,00;0,0085
3016,00;0,0085
3015,00;0,0085
3014,00;0,0084
3013,00;0,0084
3012,00;0,0085
3011,00;0,0085
3010,00;0,0085
3009,00;0,0086
3008,00;0,0086
3007,00;0,0086
3006,00;0,0086
3005,00;0,0086
3004,00;0,0086
3003,00;0,0086
3002,00;0,0086
3001,00;0,0087
3000,00;0,0087
2999,00;0,0087
2998,00;0,0087
2997,00;0,0087
2996,00;0,0088
2995,00;0,0088
2994,00;0,0088
2993,00;0,0088
2992,00;0,0088
2991,00;0,0088
2990,00;0,0088
2989,00;0,0088
2988,00;0,0088
2987,00;0,0089
2986,00;0,0089
2985,00;0,0089
2984,00;0,0090
2983,00;0,0090
2982,00;0,0091
2981,00;0,0091
2980,00;0,0091
2979,00;0,0091
2978,00;0,0091
2977,00;0,0092
2976,00;0,0092
2975,00;0,0092
2974,00;0,0093
2973,00;0,0093
2972,00;0,0093
2971,00;0,0093
2970,00;0,0093
2969,00;0,0093
2968,00;0,0094
2967,00;0,0094
2966,00;0,0094
2965,00;0,0094
2964,00;0,0093
2963,00;0,0093
2962,00;0,0093
2961,00;0,0093
2960,00;0,0093
2959,00;0,0093
2958,00;0,0094
2957,00;0,0094
2956,00;0,0094
2955,00;0,0095
2954,00;0,0095
2953,00;0,0095
2952,00;0,0096
2951,00;0,0096
2950,00;0,0096
2949,00;0,0097
2948,00;0,0097
2947,00;0,0097
2946,00;0,0097
2945,00;0,0098
2944,00;0,0098
2943,00;0,0098
2942,00;0,0098
2941,00;0,0098
2940,00;0,0098
2939,00;0,0097
2938,00;0,0097
2937,00;0,0096
2936,00;0,0095
2935,00;0,0095
2934,00;0,0094
2933,00;0,0094
2932,00;0,0094
2931,00;0,0093
2930,00;0,0093
2929,00;0,0092
2928,00;0,0092
2927,00;0,0091
2926,00;0,0091
2925,00;0,0091
2924,00;0,0091
2923,00;0,0091
2922,00;0,0091
2921,00;0,0091
2920,00;0,0091
2919,00;0,0091
2918,00;0,0092
2917,00;0,0092
2916,00;0,0093
2915,00;0,0093
2914,00;0,0093
2913,00;0,0093
2912,00;0,0094
2911,00;0,0094
2910,00;0,0095
2909,00;0,0095
2908,00;0,0095
2907,00;0,0095
2906,00;0,0095
2905,00;0,0095
2904,00;0,0094
2903,00;0,0094
2902,00;0,0094
2901,00;0,0094
2900,00;0,0093
2899,00;0,0093
2898,00;0,0093
2897,00;0,0093
2896,00;0,0092
2895,00;0,0092
2894,00;0,0092
2893,00;0,0092
2892,00;0,0092
2891,00;0,0092
2890,00;0,0092
2889,00;0,0092
2888,00;0,0092
2887,00;0,0092
2886,00;0,0092
2885,00;0,0092
2884,00;0,0092
2883,00;0,0092
2882,00;0,0092
2881,00;0,0092
2880,00;0,0092
2879,00;0,0092
2878,00;0,0091
2877,00;0,0091
2876,00;0,0091
2875,00;0,0091
2874,00;0,0091
2873,00;0,0091
2872,00;0,0091
2871,00;0,0092
2870,00;0,0092
2869,00;0,0092
2868,00;0,0092
2867,00;0,0092
2866,00;0,0092
2865,00;0,0091
2864,00;0,0091
2863,00;0,0090
2862,00;0,0089
2861,00;0,0088
2860,00;0,0088
2859,00;0,0087
2858,00;0,0086
2857,00;0,0085
2856,00;0,0085
2855,00;0,0085
2854,00;0,0085
2853,00;0,0084
2852,00;0,0084
2851,00;0,0084
2850,00;0,0084
2849,00;0,0084
2848,00;0,0084
2847,00;0,0085
2846,00;0,0085
2845,00;0,0085
2844,00;0,0085
2843,00;0,0085
2842,00;0,0085
2841,00;0,0084
2840,00;0,0084
2839,00;0,0084
2838,00;0,0084
2837,00;0,0084
2836,00;0,0084
2835,00;0,0084
2834,00;0,0084
2833,00;0,0084
2832,00;0,0084
2831,00;0,0084
2830,00;0,0084
2829,00;0,0084
2828,00;0,0084
2827,00;0,0084
2826,00;0,0084
2825,00;0,0083
2824,00;0,0083
2823,00;0,0083
2822,00;0,0083
2821,00;0,0083
2820,00;0,0083
2819,00;0,0083
2818,00;0,0082
2817,00;0,0082
2816,00;0,0082
2815,00;0,0082
2814,00;0,0082
2813,00;0,0082
2812,00;0,0082
2811,00;0,0082
2810,00;0,0082
2809,00;0,0082
2808,00;0,0082
2807,00;0,0081
2806,00;0,0081
2805,00;0,0081
2804,00;0,0081
2803,00;0,0081
2802,00;0,0081
2801,00;0,0081
2800,00;0,0080
2799,00;0,0080
2798,00;0,0080
2797,00;0,0080
2796,00;0,0080
2795,00;0,0080
2794,00;0,0080
2793,00;0,0080
2792,00;0,0079
2791,00;0,0079
2790,00;0,0079
2789,00;0,0079
2788,00;0,0079
2787,00;0,0079
2786,00;0,0079
2785,00;0,0079
2784,00;0,0079
2783,00;0,0079
2782,00;0,0078
2781,00;0,0078
2780,00;0,0078
2779,00;0,0078
2778,00;0,0078
2777,00;0,0078
2776,00;0,0078
2775,00;0,0078
2774,00;0,0078
2773,00;0,0078
2772,00;0,0077
2771,00;0,0077
2770,00;0,0077
2769,00;0,0077
2768,00;0,0077
2767,00;0,0077
2766,00;0,0077
2765,00;0,0077
2764,00;0,0077
2763,00;0,0077
2762,00;0,0077
2761,00;0,0077
2760,00;0,0077
2759,00;0,0076
2758,00;0,0076
2757,00;0,0076
2756,00;0,0076
2755,00;0,0076
2754,00;0,0076
2753,00;0,0076
2752,00;0,0076
2751,00;0,0076
2750,00;0,0076
2749,00;0,0076
2748,00;0,0076
2747,00;0,0076
2746,00;0,0076
2745,00;0,0076
2744,00;0,0076
2743,00;0,0076
2742,00;0,0075
2741,00;0,0075
2740,00;0,0075
2739,00;0,0075
2738,00;0,0075
2737,00;0,0075
2736,00;0,0075
2735,00;0,0075
2734,00;0,0075
2733,00;0,0075
2732,00;0,0075
2731,00;0,0075
2730,00;0,0075
2729,00;0,0075
2728,00;0,0075
2727,00;0,0075
2726,00;0,0075
2725,00;0,0075
2724,00;0,0074
2723,00;0,0074
2722,00;0,0074
2721,00;0,0074
2720,00;0,0074
2719,00;0,0074
2718,00;0,0074
2717,00;0,0074
2716,00;0,0074
2715,00;0,0074
2714,00;0,0074
2713,00;0,0074
2712,00;0,0074
2711,00;0,0074
2710,00;0,0074
2709,00;0,0074
2708,00;0,0074
2707,00;0,0074
2706,00;0,0074
2705,00;0,0074
2704,00;0,0074
2703,00;0,0074
2702,00;0,0074
2701,00;0,0073
2700,00;0,0073
2699,00;0,0073
2698,00;0,0073
2697,00;0,0073
2696,00;0,0073
2695,00;0,0073
2694,00;0,0073
2693,00;0,0073
2692,00;0,0073
2691,00;0,0073
2690,00;0,0073
2689,00;0,0073
2688,00;0,0073
2687,00;0,0073
2686,00;0,0073
2685,00;0,0073
2684,00;0,0073
2683,00;0,0073
2682,00;0,0073
2681,00;0,0073
2680,00;0,0073
2679,00;0,0073
2678,00;0,0073
2677,00;0,0073
2676,00;0,0073
2675,00;0,0073
2674,00;0,0073
2673,00;0,0073
2672,00;0,0073
2671,00;0,0073
2670,00;0,0073
2669,00;0,0073
2668,00;0,0073
2667,00;0,0073
2666,00;0,0073
2665,00;0,0073
2664,00;0,0074
2663,00;0,0074
2662,00;0,0074
2661,00;0,0074
2660,00;0,0075
2659,00;0,0075
2658,00;0,0075
2657,00;0,0075
2656,00;0,0075
2655,00;0,0075
2654,00;0,0075
2653,00;0,0075
2652,00;0,0075
2651,00;0,0075
2650,00;0,0075
2649,00;0,0074
2648,00;0,0074
2647,00;0,0075
2646,00;0,0075
2645,00;0,0075
2644,00;0,0075
2643,00;0,0075
2642,00;0,0075
2641,00;0,0074
2640,00;0,0074
2639,00;0,0074
2638,00;0,0074
2637,00;0,0074
2636,00;0,0074
2635,00;0,0074
2634,00;0,0074
2633,00;0,0074
2632,00;0,0074
2631,00;0,0074
2630,00;0,0074
2629,00;0,0074
2628,00;0,0074
2627,00;0,0074
2626,00;0,0074
2625,00;0,0074
2624,00;0,0074
2623,00;0,0074
2622,00;0,0073
2621,00;0,0073
2620,00;0,0073
2619,00;0,0073
2618,00;0,0073
2617,00;0,0073
2616,00;0,0073
2615,00;0,0073
2614,00;0,0073
2613,00;0,0073
2612,00;0,0073
2611,00;0,0073
2610,00;0,0073
2609,00;0,0073
2608,00;0,0073
2607,00;0,0073
2606,00;0,0072
2605,00;0,0072
2604,00;0,0072
2603,00;0,0072
2602,00;0,0072
2601,00;0,0072
2600,00;0,0072
2599,00;0,0072
2598,00;0,0072
2597,00;0,0072
2596,00;0,0072
2595,00;0,0072
2594,00;0,0072
2593,00;0,0072
2592,00;0,0071
2591,00;0,0071
2590,00;0,0071
2589,00;0,0071
2588,00;0,0071
2587,00;0,0071
2586,00;0,0071
2585,00;0,0071
2584,00;0,0071
2583,00;0,0071
2582,00;0,0071
2581,00;0,0071
2580,00;0,0070
2579,00;0,0070
2578,00;0,0070
2577,00;0,0070
2576,00;0,0070
2575,00;0,0070
2574,00;0,0070
2573,00;0,0070
2572,00;0,0070
2571,00;0,0070
2570,00;0,0070
2569,00;0,0070
2568,00;0,0070
2567,00;0,0070
2566,00;0,0070
2565,00;0,0070
2564,00;0,0070
2563,00;0,0070
2562,00;0,0070
2561,00;0,0070
2560,00;0,0070
2559,00;0,0069
2558,00;0,0069
2557,00;0,0069
2556,00;0,0069
2555,00;0,0069
2554,00;0,0069
2553,00;0,0069
2552,00;0,0069
2551,00;0,0069
2550,00;0,0069
2549,00;0,0069
2548,00;0,0069
2547,00;0,0069
2546,00;0,0069
2545,00;0,0069
2544,00;0,0069
2543,00;0,0069
2542,00;0,0069
2541,00;0,0069
2540,00;0,0068
2539,00;0,0068
2538,00;0,0068
2537,00;0,0068
2536,00;0,0068
2535,00;0,0068
2534,00;0,0068
2533,00;0,0068
2532,00;0,0068
2531,00;0,0068
2530,00;0,0068
2529,00;0,0068
2528,00;0,0068
2527,00;0,0068
2526,00;0,0068
2525,00;0,0068
2524,00;0,0068
2523,00;0,0068
2522,00;0,0068
2521,00;0,0068
2520,00;0,0068
2519,00;0,0068
2518,00;0,0068
2517,00;0,0068
2516,00;0,0068
2515,00;0,0068
2514,00;0,0068
2513,00;0,0067
2512,00;0,0067
2511,00;0,0067
2510,00;0,0067
2509,00;0,0067
2508,00;0,0067
2507,00;0,0067
2506,00;0,0067
2505,00;0,0067
2504,00;0,0067
2503,00;0,0067
2502,00;0,0067
2501,00;0,0067
2500,00;0,0067
2499,00;0,0067
2498,00;0,0067
2497,00;0,0067
2496,00;0,0067
2495,00;0,0067
2494,00;0,0067
2493,00;0,0067
2492,00;0,0067
2491,00;0,0067
2490,00;0,0066
2489,00;0,0066
2488,00;0,0066
2487,00;0,0066
2486,00;0,0066
2485,00;0,0066
2484,00;0,0066
2483,00;0,0066
2482,00;0,0066
2481,00;0,0066
2480,00;0,0066
2479,00;0,0066
2478,00;0,0066
2477,00;0,0066
2476,00;0,0066
2475,00;0,0066
2474,00;0,0066
2473,00;0,0066
2472,00;0,0066
2471,00;0,0066
2470,00;0,0066
2469,00;0,0066
2468,00;0,0066
2467,00;0,0066
2466,00;0,0066
2465,00;0,0066
2464,00;0,0066
2463,00;0,0066
2462,00;0,0066
2461,00;0,0066
2460,00;0,0066
2459,00;0,0065
2458,00;0,0066
2457,00;0,0066
2456,00;0,0066
2455,00;0,0065
2454,00;0,0065
2453,00;0,0065
2452,00;0,0065
2451,00;0,0065
2450,00;0,0065
2449,00;0,0065
2448,00;0,0065
2447,00;0,0065
2446,00;0,0065
2445,00;0,0065
2444,00;0,0065
2443,00;0,0065
2442,00;0,0065
2441,00;0,0065
2440,00;0,0065
2439,00;0,0064
2438,00;0,0064
2437,00;0,0064
2436,00;0,0064
2435,00;0,0064
2434,00;0,0064
2433,00;0,0064
2432,00;0,0064
2431,00;0,0064
2430,00;0,0064
2429,00;0,0064
2428,00;0,0064
2427,00;0,0064
2426,00;0,0064
2425,00;0,0064
2424,00;0,0064
2423,00;0,0064
2422,00;0,0063
2421,00;0,0063
2420,00;0,0063
2419,00;0,0063
2418,00;0,0063
2417,00;0,0063
2416,00;0,0063
2415,00;0,0063
2414,00;0,0063
2413,00;0,0063
2412,00;0,0063
2411,00;0,0063
2410,00;0,0063
2409,00;0,0063
2408,00;0,0062
2407,00;0,0062
2406,00;0,0062
2405,00;0,0062
2404,00;0,0062
2403,00;0,0062
2402,00;0,0062
2401,00;0,0062
2400,00;0,0062
2399,00;0,0062
2398,00;0,0062
2397,00;0,0062
2396,00;0,0062
2395,00;0,0062
2394,00;0,0062
2393,00;0,0061
2392,00;0,0061
2391,00;0,0061
2390,00;0,0061
2389,00;0,0061
2388,00;0,0061
2387,00;0,0061
2386,00;0,0061
2385,00;0,0061
2384,00;0,0061
2383,00;0,0061
2382,00;0,0061
2381,00;0,0061
2380,00;0,0061
2379,00;0,0061
2378,00;0,0061
2377,00;0,0061
2376,00;0,0061
2375,00;0,0060
2374,00;0,0060
2373,00;0,0060
2372,00;0,0060
2371,00;0,0060
2370,00;0,0060
2369,00;0,0060
2368,00;0,0060
2367,00;0,0060
2366,00;0,0061
2365,00;0,0061
2364,00;0,0061
2363,00;0,0061
2362,00;0,0061
2361,00;0,0061
2360,00;0,0061
2359,00;0,0061
2358,00;0,0061
2357,00;0,0061
2356,00;0,0061
2355,00;0,0061
2354,00;0,0061
2353,00;0,0061
2352,00;0,0061
2351,00;0,0061
2350,00;0,0061
2349,00;0,0062
2348,00;0,0062
2347,00;0,0062
2346,00;0,0062
2345,00;0,0062
2344,00;0,0062
2343,00;0,0062
2342,00;0,0062
2341,00;0,0062
2340,00;0,0062
2339,00;0,0063
2338,00;0,0063
2337,00;0,0063
2336,00;0,0063
2335,00;0,0063
2334,00;0,0063
2333,00;0,0063
2332,00;0,0063
2331,00;0,0063
2330,00;0,0063
2329,00;0,0064
2328,00;0,0064
2327,00;0,0065
2326,00;0,0065
2325,00;0,0066
2324,00;0,0066
2323,00;0,0066
2322,00;0,0065
2321,00;0,0065
2320,00;0,0065
2319,00;0,0065
2318,00;0,0065
2317,00;0,0065
2316,00;0,0065
2315,00;0,0065
2314,00;0,0065
2313,00;0,0065
2312,00;0,0065
2311,00;0,0065
2310,00;0,0065
2309,00;0,0065
2308,00;0,0065
2307,00;0,0065
2306,00;0,0065
2305,00;0,0065
2304,00;0,0065
2303,00;0,0065
2302,00;0,0065
2301,00;0,0065
2300,00;0,0065
2299,00;0,0065
2298,00;0,0065
2297,00;0,0066
2296,00;0,0066
2295,00;0,0066
2294,00;0,0066
2293,00;0,0066
2292,00;0,0067
2291,00;0,0068
2290,00;0,0068
2289,00;0,0069
2288,00;0,0069
2287,00;0,0069
2286,00;0,0069
2285,00;0,0068
2284,00;0,0068
2283,00;0,0067
2282,00;0,0067
2281,00;0,0066
2280,00;0,0066
2279,00;0,0065
2278,00;0,0065
2277,00;0,0065
2276,00;0,0065
2275,00;0,0065
2274,00;0,0064
2273,00;0,0064
2272,00;0,0064
2271,00;0,0064
2270,00;0,0064
2269,00;0,0064
2268,00;0,0064
2267,00;0,0064
2266,00;0,0063
2265,00;0,0063
2264,00;0,0062
2263,00;0,0062
2262,00;0,0062
2261,00;0,0063
2260,00;0,0063
2259,00;0,0064
2258,00;0,0064
2257,00;0,0064
2256,00;0,0064
2255,00;0,0064
2254,00;0,0063
2253,00;0,0063
2252,00;0,0062
2251,00;0,0062
2250,00;0,0062
2249,00;0,0062
2248,00;0,0062
2247,00;0,0062
2246,00;0,0062
2245,00;0,0062
2244,00;0,0062
2243,00;0,0062
2242,00;0,0062
2241,00;0,0062
2240,00;0,0062
2239,00;0,0062
2238,00;0,0061
2237,00;0,0061
2236,00;0,0061
2235,00;0,0061
2234,00;0,0061
2233,00;0,0061
2232,00;0,0061
2231,00;0,0061
2230,00;0,0061
2229,00;0,0061
2228,00;0,0061
2227,00;0,0061
2226,00;0,0061
2225,00;0,0061
2224,00;0,0060
2223,00;0,0060
2222,00;0,0060
2221,00;0,0060
2220,00;0,0060
2219,00;0,0060
2218,00;0,0060
2217,00;0,0060
2216,00;0,0061
2215,00;0,0060
2214,00;0,0060
2213,00;0,0060
2212,00;0,0060
2211,00;0,0060
2210,00;0,0061
2209,00;0,0061
2208,00;0,0061
2207,00;0,0060
2206,00;0,0060
2205,00;0,0060
2204,00;0,0059
2203,00;0,0059
2202,00;0,0059
2201,00;0,0059
2200,00;0,0059
2199,00;0,0059
2198,00;0,0059
2197,00;0,0058
2196,00;0,0058
2195,00;0,0058
2194,00;0,0058
2193,00;0,0059
2192,00;0,0060
2191,00;0,0060
2190,00;0,0060
2189,00;0,0061
2188,00;0,0060
2187,00;0,0060
2186,00;0,0059
2185,00;0,0058
2184,00;0,0057
2183,00;0,0057
2182,00;0,0056
2181,00;0,0056
2180,00;0,0056
2179,00;0,0056
2178,00;0,0056
2177,00;0,0056
2176,00;0,0056
2175,00;0,0056
2174,00;0,0055
2173,00;0,0055
2172,00;0,0054
2171,00;0,0054
2170,00;0,0054
2169,00;0,0054
2168,00;0,0054
2167,00;0,0054
2166,00;0,0055
2165,00;0,0055
2164,00;0,0055
2163,00;0,0055
2162,00;0,0054
2161,00;0,0053
2160,00;0,0052
2159,00;0,0050
2158,00;0,0049
2157,00;0,0050
2156,00;0,0050
2155,00;0,0050
2154,00;0,0050
2153,00;0,0050
2152,00;0,0050
2151,00;0,0050
2150,00;0,0051
2149,00;0,0051
2148,00;0,0051
2147,00;0,0051
2146,00;0,0051
2145,00;0,0050
2144,00;0,0050
2143,00;0,0050
2142,00;0,0050
2141,00;0,0050
2140,00;0,0050
2139,00;0,0051
2138,00;0,0051
2137,00;0,0050
2136,00;0,0050
2135,00;0,0050
2134,00;0,0049
2133,00;0,0049
2132,00;0,0049
2131,00;0,0049
2130,00;0,0049
2129,00;0,0050
2128,00;0,0051
2127,00;0,0051
2126,00;0,0052
2125,00;0,0052
2124,00;0,0052
2123,00;0,0052
2122,00;0,0052
2121,00;0,0052
2120,00;0,0053
2119,00;0,0053
2118,00;0,0054
2117,00;0,0054
2116,00;0,0055
2115,00;0,0056
2114,00;0,0056
2113,00;0,0056
2112,00;0,0056
2111,00;0,0055
2110,00;0,0055
2109,00;0,0055
2108,00;0,0055
2107,00;0,0055
2106,00;0,0055
2105,00;0,0054
2104,00;0,0054
2103,00;0,0054
2102,00;0,0054
2101,00;0,0054
2100,00;0,0055
2099,00;0,0054
2098,00;0,0054
2097,00;0,0054
2096,00;0,0054
2095,00;0,0054
2094,00;0,0054
2093,00;0,0054
2092,00;0,0054
2091,00;0,0055
2090,00;0,0055
2089,00;0,0055
2088,00;0,0055
2087,00;0,0055
2086,00;0,0055
2085,00;0,0055
2084,00;0,0055
2083,00;0,0055
2082,00;0,0055
2081,00;0,0055
2080,00;0,0055
2079,00;0,0055
2078,00;0,0055
2077,00;0,0055
2076,00;0,0056
2075,00;0,0056
2074,00;0,0056
2073,00;0,0056
2072,00;0,0056
2071,00;0,0056
2070,00;0,0056
2069,00;0,0056
2068,00;0,0056
2067,00;0,0056
2066,00;0,0056
2065,00;0,0056
2064,00;0,0056
2063,00;0,0056
2062,00;0,0056
2061,00;0,0056
2060,00;0,0056
2059,00;0,0056
2058,00;0,0056
2057,00;0,0056
2056,00;0,0056
2055,00;0,0056
2054,00;0,0056
2053,00;0,0056
2052,00;0,0056
2051,00;0,0056
2050,00;0,0056
2049,00;0,0056
2048,00;0,0056
2047,00;0,0056
2046,00;0,0055
2045,00;0,0055
2044,00;0,0055
2043,00;0,0055
2042,00;0,0054
2041,00;0,0054
2040,00;0,0054
2039,00;0,0054
2038,00;0,0054
2037,00;0,0054
2036,00;0,0054
2035,00;0,0054
2034,00;0,0054
2033,00;0,0053
2032,00;0,0053
2031,00;0,0053
2030,00;0,0052
2029,00;0,0052
2028,00;0,0052
2027,00;0,0052
2026,00;0,0052
2025,00;0,0052
2024,00;0,0051
2023,00;0,0051
2022,00;0,0050
2021,00;0,0050
2020,00;0,0049
2019,00;0,0049
2018,00;0,0050
2017,00;0,0050
2016,00;0,0050
2015,00;0,0051
2014,00;0,0051
2013,00;0,0051
2012,00;0,0050
2011,00;0,0050
2010,00;0,0050
2009,00;0,0050
2008,00;0,0050
2007,00;0,0049
2006,00;0,0048
2005,00;0,0047
2004,00;0,0047
2003,00;0,0047
2002,00;0,0047
2001,00;0,0047
2000,00;0,0048
1999,00;0,0048
1998,00;0,0048
1997,00;0,0049
1996,00;0,0049
1995,00;0,0050
1994,00;0,0050
1993,00;0,0050
1992,00;0,0050
1991,00;0,0050
1990,00;0,0050
1989,00;0,0049
1988,00;0,0049
1987,00;0,0049
1986,00;0,0048
1985,00;0,0048
1984,00;0,0048
1983,00;0,0049
1982,00;0,0050
1981,00;0,0050
1980,00;0,0050
1979,00;0,0049
1978,00;0,0048
1977,00;0,0047
1976,00;0,0046
1975,00;0,0045
1974,00;0,0045
1973,00;0,0045
1972,00;0,0046
1971,00;0,0047
1970,00;0,0048
1969,00;0,0048
1968,00;0,0048
1967,00;0,0047
1966,00;0,0047
1965,00;0,0047
1964,00;0,0047
1963,00;0,0046
1962,00;0,0046
1961,00;0,0046
1960,00;0,0046
1959,00;0,0046
1958,00;0,0045
1957,00;0,0045
1956,00;0,0045
1955,00;0,0045
1954,00;0,0046
1953,00;0,0046
1952,00;0,0046
1951,00;0,0046
1950,00;0,0046
1949,00;0,0046
1948,00;0,0046
1947,00;0,0046
1946,00;0,0046
1945,00;0,0045
1944,00;0,0045
1943,00;0,0045
1942,00;0,0046
1941,00;0,0046
1940,00;0,0046
1939,00;0,0046
1938,00;0,0046
1937,00;0,0046
1936,00;0,0047
1935,00;0,0046
1934,00;0,0046
1933,00;0,0046
1932,00;0,0046
1931,00;0,0046
1930,00;0,0045
1929,00;0,0046
1928,00;0,0046
1927,00;0,0046
1926,00;0,0046
1925,00;0,0046
1924,00;0,0046
1923,00;0,0046
1922,00;0,0046
1921,00;0,0046
1920,00;0,0047
1919,00;0,0047
1918,00;0,0047
1917,00;0,0046
1916,00;0,0046
1915,00;0,0046
1914,00;0,0047
1913,00;0,0047
1912,00;0,0047
1911,00;0,0047
1910,00;0,0047
1909,00;0,0047
1908,00;0,0047
1907,00;0,0047
1906,00;0,0047
1905,00;0,0047
1904,00;0,0047
1903,00;0,0047
1902,00;0,0047
1901,00;0,0047
1900,00;0,0047
1899,00;0,0047
1898,00;0,0047
1897,00;0,0047
1896,00;0,0047
1895,00;0,0046
1894,00;0,0046
1893,00;0,0046
1892,00;0,0046
1891,00;0,0046
1890,00;0,0047
1889,00;0,0047
1888,00;0,0047
1887,00;0,0047
1886,00;0,0047
1885,00;0,0047
1884,00;0,0047
1883,00;0,0046
1882,00;0,0046
1881,00;0,0046
1880,00;0,0046
1879,00;0,0046
1878,00;0,0046
1877,00;0,0046
1876,00;0,0046
1875,00;0,0046
1874,00;0,0046
1873,00;0,0046
1872,00;0,0046
1871,00;0,0046
1870,00;0,0046
1869,00;0,0046
1868,00;0,0046
1867,00;0,0047
1866,00;0,0047
1865,00;0,0047
1864,00;0,0046
1863,00;0,0046
1862,00;0,0046
1861,00;0,0046
1860,00;0,0046
1859,00;0,0046
1858,00;0,0046
1857,00;0,0046
1856,00;0,0046
1855,00;0,0046
1854,00;0,0046
1853,00;0,0046
1852,00;0,0046
1851,00;0,0046
1850,00;0,0046
1849,00;0,0046
1848,00;0,0046
1847,00;0,0046
1846,00;0,0045
1845,00;0,0045
1844,00;0,0045
1843,00;0,0045
1842,00;0,0045
1841,00;0,0045
1840,00;0,0045
1839,00;0,0045
1838,00;0,0045
1837,00;0,0045
1836,00;0,0045
1835,00;0,0045
1834,00;0,0045
1833,00;0,0045
1832,00;0,0045
1831,00;0,0045
1830,00;0,0045
1829,00;0,0045
1828,00;0,0045
1827,00;0,0045
1826,00;0,0045
1825,00;0,0045
1824,00;0,0045
1823,00;0,0045
1822,00;0,0045
1821,00;0,0045
1820,00;0,0045
1819,00;0,0045
1818,00;0,0044
1817,00;0,0044
1816,00;0,0044
1815,00;0,0044
1814,00;0,0045
1813,00;0,0045
1812,00;0,0045
1811,00;0,0045
1810,00;0,0045
1809,00;0,0044
1808,00;0,0045
1807,00;0,0045
1806,00;0,0045
1805,00;0,0045
1804,00;0,0045
1803,00;0,0045
1802,00;0,0045
1801,00;0,0045
1800,00;0,0044
1799,00;0,0044
1798,00;0,0044
1797,00;0,0044
1796,00;0,0044
1795,00;0,0044
1794,00;0,0044
1793,00;0,0044
1792,00;0,0044
1791,00;0,0044
1790,00;0,0044
1789,00;0,0044
1788,00;0,0044
1787,00;0,0044
1786,00;0,0044
1785,00;0,0044
1784,00;0,0044
1783,00;0,0045
1782,00;0,0045
1781,00;0,0045
1780,00;0,0044
1779,00;0,0044
1778,00;0,0044
1777,00;0,0044
1776,00;0,0044
1775,00;0,0044
1774,00;0,0043
1773,00;0,0043
1772,00;0,0043
1771,00;0,0043
1770,00;0,0043
1769,00;0,0043
1768,00;0,0043
1767,00;0,0043
1766,00;0,0044
1765,00;0,0044
1764,00;0,0043
1763,00;0,0043
1762,00;0,0043
1761,00;0,0044
1760,00;0,0044
1759,00;0,0044
1758,00;0,0043
1757,00;0,0043
1756,00;0,0043
1755,00;0,0043
1754,00;0,0043
1753,00;0,0043
1752,00;0,0043
1751,00;0,0044
1750,00;0,0044
1749,00;0,0044
1748,00;0,0044
1747,00;0,0044
1746,00;0,0045
1745,00;0,0046
1744,00;0,0046
1743,00;0,0047
1742,00;0,0047
1741,00;0,0047
1740,00;0,0048
1739,00;0,0049
1738,00;0,0050
1737,00;0,0050
1736,00;0,0051
1735,00;0,0051
1734,00;0,0052
1733,00;0,0053
1732,00;0,0054
1731,00;0,0055
1730,00;0,0055
1729,00;0,0056
1728,00;0,0056
1727,00;0,0057
1726,00;0,0058
1725,00;0,0059
1724,00;0,0059
1723,00;0,0060
1722,00;0,0061
1721,00;0,0061
1720,00;0,0062
1719,00;0,0063
1718,00;0,0063
1717,00;0,0064
1716,00;0,0064
1715,00;0,0065
1714,00;0,0065
1713,00;0,0066
1712,00;0,0067
1711,00;0,0067
1710,00;0,0067
1709,00;0,0067
1708,00;0,0067
1707,00;0,0066
1706,00;0,0067
1705,00;0,0067
1704,00;0,0067
1703,00;0,0067
1702,00;0,0067
1701,00;0,0067
1700,00;0,0066
1699,00;0,0066
1698,00;0,0067
1697,00;0,0067
1696,00;0,0067
1695,00;0,0066
1694,00;0,0066
1693,00;0,0066
1692,00;0,0066
1691,00;0,0067
1690,00;0,0067
1689,00;0,0067
1688,00;0,0067
1687,00;0,0067
1686,00;0,0067
1685,00;0,0067
1684,00;0,0066
1683,00;0,0066
1682,00;0,0066
1681,00;0,0066
1680,00;0,0066
1679,00;0,0065
1678,00;0,0065
1677,00;0,0064
1676,00;0,0064
1675,00;0,0063
1674,00;0,0062
1673,00;0,0062
1672,00;0,0061
1671,00;0,0061
1670,00;0,0060
1669,00;0,0059
1668,00;0,0059
1667,00;0,0058
1666,00;0,0058
1665,00;0,0058
1664,00;0,0057
1663,00;0,0056
1662,00;0,0056
1661,00;0,0056
1660,00;0,0056
1659,00;0,0056
1658,00;0,0056
1657,00;0,0056
1656,00;0,0056
1655,00;0,0055
1654,00;0,0054
1653,00;0,0053
1652,00;0,0053
1651,00;0,0053
1650,00;0,0053
1649,00;0,0053
1648,00;0,0053
1647,00;0,0053
1646,00;0,0053
1645,00;0,0053
1644,00;0,0054
1643,00;0,0055
1642,00;0,0055
1641,00;0,0056
1640,00;0,0056
1639,00;0,0057
1638,00;0,0057
1637,00;0,0057
1636,00;0,0057
1635,00;0,0058
1634,00;0,0058
1633,00;0,0059
1632,00;0,0060
1631,00;0,0061
1630,00;0,0062
1629,00;0,0063
1628,00;0,0064
1627,00;0,0066
1626,00;0,0067
1625,00;0,0069
1624,00;0,0072
1623,00;0,0074
1622,00;0,0077
1621,00;0,0081
1620,00;0,0084
1619,00;0,0087
1618,00;0,0090
1617,00;0,0094
1616,00;0,0099
1615,00;0,0103
1614,00;0,0108
1613,00;0,0114
1612,00;0,0119
1611,00;0,0126
1610,00;0,0132
1609,00;0,0138
1608,00;0,0145
1607,00;0,0152
1606,00;0,0159
1605,00;0,0166
1604,00;0,0173
1603,00;0,0180
1602,00;0,0187
1601,00;0,0194
1600,00;0,0202
1599,00;0,0209
1598,00;0,0216
1597,00;0,0223
1596,00;0,0229
1595,00;0,0235
1594,00;0,0241
1593,00;0,0246
1592,00;0,0251
1591,00;0,0256
1590,00;0,0260
1589,00;0,0264
1588,00;0,0268
1587,00;0,0272
1586,00;0,0275
1585,00;0,0277
1584,00;0,0280
1583,00;0,0282
1582,00;0,0283
1581,00;0,0285
1580,00;0,0286
1579,00;0,0288
1578,00;0,0288
1577,00;0,0288
1576,00;0,0287
1575,00;0,0286
1574,00;0,0286
1573,00;0,0287
1572,00;0,0288
1571,00;0,0288
1570,00;0,0287
1569,00;0,0286
1568,00;0,0285
1567,00;0,0285
1566,00;0,0284
1565,00;0,0283
1564,00;0,0281
1563,00;0,0281
1562,00;0,0280
1561,00;0,0279
1560,00;0,0275
1559,00;0,0269
1558,00;0,0264
1557,00;0,0262
1556,00;0,0262
1555,00;0,0261
1554,00;0,0260
1553,00;0,0259
1552,00;0,0258
1551,00;0,0257
1550,00;0,0256
1549,00;0,0256
1548,00;0,0256
1547,00;0,0256
1546,00;0,0257
1545,00;0,0258
1544,00;0,0258
1543,00;0,0258
1542,00;0,0258
1541,00;0,0258
1540,00;0,0258
1539,00;0,0259
1538,00;0,0261
1537,00;0,0263
1536,00;0,0266
1535,00;0,0268
1534,00;0,0270
1533,00;0,0271
1532,00;0,0272
1531,00;0,0274
1530,00;0,0276
1529,00;0,0278
1528,00;0,0280
1527,00;0,0281
1526,00;0,0282
1525,00;0,0283
1524,00;0,0284
1523,00;0,0285
1522,00;0,0285
1521,00;0,0284
1520,00;0,0282
1519,00;0,0282
1518,00;0,0282
1517,00;0,0281
1516,00;0,0279
1515,00;0,0277
1514,00;0,0275
1513,00;0,0272
1512,00;0,0269
1511,00;0,0266
1510,00;0,0264
1509,00;0,0260
1508,00;0,0255
1507,00;0,0246
1506,00;0,0236
1505,00;0,0229
1504,00;0,0224
1503,00;0,0220
1502,00;0,0215
1501,00;0,0210
1500,00;0,0204
1499,00;0,0198
1498,00;0,0192
1497,00;0,0185
1496,00;0,0178
1495,00;0,0171
1494,00;0,0166
1493,00;0,0161
1492,00;0,0156
1491,00;0,0151
1490,00;0,0145
1489,00;0,0140
1488,00;0,0135
1487,00;0,0131
1486,00;0,0127
1485,00;0,0123
1484,00;0,0120
1483,00;0,0118
1482,00;0,0116
1481,00;0,0114
1480,00;0,0114
1479,00;0,0114
1478,00;0,0114
1477,00;0,0115
1476,00;0,0117
1475,00;0,0120
1474,00;0,0123
1473,00;0,0127
1472,00;0,0133
1471,00;0,0140
1470,00;0,0147
1469,00;0,0154
1468,00;0,0162
1467,00;0,0170
1466,00;0,0179
1465,00;0,0187
1464,00;0,0196
1463,00;0,0203
1462,00;0,0210
1461,00;0,0216
1460,00;0,0223
1459,00;0,0230
1458,00;0,0236
1457,00;0,0242
1456,00;0,0247
1455,00;0,0252
1454,00;0,0257
1453,00;0,0262
1452,00;0,0267
1451,00;0,0272
1450,00;0,0277
1449,00;0,0281
1448,00;0,0285
1447,00;0,0289
1446,00;0,0292
1445,00;0,0296
1444,00;0,0300
1443,00;0,0304
1442,00;0,0308
1441,00;0,0312
1440,00;0,0317
1439,00;0,0321
1438,00;0,0326
1437,00;0,0330
1436,00;0,0333
1435,00;0,0336
1434,00;0,0340
1433,00;0,0344
1432,00;0,0348
1431,00;0,0351
1430,00;0,0354
1429,00;0,0356
1428,00;0,0359
1427,00;0,0362
1426,00;0,0365
1425,00;0,0369
1424,00;0,0372
1423,00;0,0376
1422,00;0,0380
1421,00;0,0386
1420,00;0,0390
1419,00;0,0393
1418,00;0,0394
1417,00;0,0396
1416,00;0,0399
1415,00;0,0400
1414,00;0,0401
1413,00;0,0402
1412,00;0,0402
1411,00;0,0401
1410,00;0,0400
1409,00;0,0399
1408,00;0,0398
1407,00;0,0397
1406,00;0,0395
1405,00;0,0393
1404,00;0,0389
1403,00;0,0385
1402,00;0,0382
1401,00;0,0378
1400,00;0,0373
1399,00;0,0366
1398,00;0,0359
1397,00;0,0352
1396,00;0,0344
1395,00;0,0335
1394,00;0,0326
1393,00;0,0318
1392,00;0,0310
1391,00;0,0303
1390,00;0,0296
1389,00;0,0289
1388,00;0,0280
1387,00;0,0271
1386,00;0,0263
1385,00;0,0256
1384,00;0,0250
1383,00;0,0244
1382,00;0,0238
1381,00;0,0232
1380,00;0,0227
1379,00;0,0222
1378,00;0,0217
1377,00;0,0214
1376,00;0,0210
1375,00;0,0207
1374,00;0,0203
1373,00;0,0201
1372,00;0,0199
1371,00;0,0197
1370,00;0,0196
1369,00;0,0196
1368,00;0,0195
1367,00;0,0194
1366,00;0,0193
1365,00;0,0192
1364,00;0,0191
1363,00;0,0189
1362,00;0,0187
1361,00;0,0185
1360,00;0,0182
1359,00;0,0180
1358,00;0,0178
1357,00;0,0175
1356,00;0,0173
1355,00;0,0170
1354,00;0,0168
1353,00;0,0165
1352,00;0,0163
1351,00;0,0160
1350,00;0,0158
1349,00;0,0156
1348,00;0,0155
1347,00;0,0153
1346,00;0,0152
1345,00;0,0151
1344,00;0,0150
1343,00;0,0150
1342,00;0,0150
1341,00;0,0151
1340,00;0,0151
1339,00;0,0152
1338,00;0,0152
1337,00;0,0153
1336,00;0,0154
1335,00;0,0155
1334,00;0,0156
1333,00;0,0157
1332,00;0,0159
1331,00;0,0162
1330,00;0,0164
1329,00;0,0166
1328,00;0,0168
1327,00;0,0170
1326,00;0,0172
1325,00;0,0174
1324,00;0,0177
1323,00;0,0180
1322,00;0,0182
1321,00;0,0185
1320,00;0,0188
1319,00;0,0190
1318,00;0,0192
1317,00;0,0193
1316,00;0,0194
1315,00;0,0194
1314,00;0,0193
1313,00;0,0192
1312,00;0,0191
1311,00;0,0190
1310,00;0,0189
1309,00;0,0189
1308,00;0,0190
1307,00;0,0191
1306,00;0,0193
1305,00;0,0194
1304,00;0,0196
1303,00;0,0195
1302,00;0,0194
1301,00;0,0191
1300,00;0,0187
1299,00;0,0182
1298,00;0,0177
1297,00;0,0172
1296,00;0,0167
1295,00;0,0163
1294,00;0,0160
1293,00;0,0156
1292,00;0,0153
1291,00;0,0150
1290,00;0,0148
1289,00;0,0145
1288,00;0,0143
1287,00;0,0141
1286,00;0,0139
1285,00;0,0138
1284,00;0,0136
1283,00;0,0135
1282,00;0,0134
1281,00;0,0133
1280,00;0,0132
1279,00;0,0132
1278,00;0,0131
1277,00;0,0131
1276,00;0,0131
1275,00;0,0130
1274,00;0,0130
1273,00;0,0130
1272,00;0,0129
1271,00;0,0129
1270,00;0,0129
1269,00;0,0128
1268,00;0,0128
1267,00;0,0128
1266,00;0,0127
1265,00;0,0126
1264,00;0,0126
1263,00;0,0125
1262,00;0,0124
1261,00;0,0124
1260,00;0,0123
1259,00;0,0123
1258,00;0,0122
1257,00;0,0122
1256,00;0,0122
1255,00;0,0121
1254,00;0,0121
1253,00;0,0121
1252,00;0,0121
1251,00;0,0121
1250,00;0,0121
1249,00;0,0120
1248,00;0,0120
1247,00;0,0120
1246,00;0,0119
1245,00;0,0119
1244,00;0,0119
1243,00;0,0119
1242,00;0,0119
1241,00;0,0119
1240,00;0,0119
1239,00;0,0119
1238,00;0,0119
1237,00;0,0119
1236,00;0,0119
1235,00;0,0119
1234,00;0,0119
1233,00;0,0119
1232,00;0,0119
1231,00;0,0120
1230,00;0,0120
1229,00;0,0120
1228,00;0,0121
1227,00;0,0122
1226,00;0,0122
1225,00;0,0123
1224,00;0,0123
1223,00;0,0123
1222,00;0,0124
1221,00;0,0125
1220,00;0,0126
1219,00;0,0127
1218,00;0,0127
1217,00;0,0128
1216,00;0,0128
1215,00;0,0128
1214,00;0,0128
1213,00;0,0129
1212,00;0,0129
1211,00;0,0129
1210,00;0,0130
1209,00;0,0131
1208,00;0,0131
1207,00;0,0131
1206,00;0,0131
1205,00;0,0132
1204,00;0,0132
1203,00;0,0132
1202,00;0,0132
1201,00;0,0133
1200,00;0,0133
1199,00;0,0134
1198,00;0,0134
1197,00;0,0135
1196,00;0,0136
1195,00;0,0136
1194,00;0,0136
1193,00;0,0135
1192,00;0,0135
1191,00;0,0135
1190,00;0,0134
1189,00;0,0134
1188,00;0,0133
1187,00;0,0132
1186,00;0,0131
1185,00;0,0130
1184,00;0,0129
1183,00;0,0128
1182,00;0,0127
1181,00;0,0126
1180,00;0,0125
1179,00;0,0124
1178,00;0,0124
1177,00;0,0123
1176,00;0,0122
1175,00;0,0122
1174,00;0,0121
1173,00;0,0121
1172,00;0,0121
1171,00;0,0120
1170,00;0,0120
1169,00;0,0119
1168,00;0,0119
1167,00;0,0119
1166,00;0,0119
1165,00;0,0119
1164,00;0,0119
1163,00;0,0119
1162,00;0,0120
1161,00;0,0120
1160,00;0,0121
1159,00;0,0122
1158,00;0,0123
1157,00;0,0124
1156,00;0,0126
1155,00;0,0127
1154,00;0,0129
1153,00;0,0130
1152,00;0,0132
1151,00;0,0134
1150,00;0,0135
1149,00;0,0137
1148,00;0,0138
1147,00;0,0140
1146,00;0,0141
1145,00;0,0142
1144,00;0,0142
1143,00;0,0143
1142,00;0,0144
1141,00;0,0145
1140,00;0,0147
1139,00;0,0148
1138,00;0,0149
1137,00;0,0151
1136,00;0,0153
1135,00;0,0155
1134,00;0,0157
1133,00;0,0160
1132,00;0,0162
1131,00;0,0165
1130,00;0,0167
1129,00;0,0169
1128,00;0,0171
1127,00;0,0172
1126,00;0,0174
1125,00;0,0177
1124,00;0,0178
1123,00;0,0180
1122,00;0,0182
1121,00;0,0183
1120,00;0,0183
1119,00;0,0184
1118,00;0,0184
1117,00;0,0184
1116,00;0,0183
1115,00;0,0183
1114,00;0,0184
1113,00;0,0184
1112,00;0,0184
1111,00;0,0184
1110,00;0,0182
1109,00;0,0181
1108,00;0,0180
1107,00;0,0179
1106,00;0,0178
1105,00;0,0177
1104,00;0,0176
1103,00;0,0175
1102,00;0,0174
1101,00;0,0172
1100,00;0,0171
1099,00;0,0169
1098,00;0,0168
1097,00;0,0167
1096,00;0,0166
1095,00;0,0166
1094,00;0,0165
1093,00;0,0165
1092,00;0,0164
1091,00;0,0163
1090,00;0,0163
1089,00;0,0162
1088,00;0,0162
1087,00;0,0163
1086,00;0,0163
1085,00;0,0163
1084,00;0,0164
1083,00;0,0164
1082,00;0,0164
1081,00;0,0164
1080,00;0,0163
1079,00;0,0163
1078,00;0,0162
1077,00;0,0162
1076,00;0,0161
1075,00;0,0160
1074,00;0,0159
1073,00;0,0159
1072,00;0,0158
1071,00;0,0158
1070,00;0,0157
1069,00;0,0157
1068,00;0,0157
1067,00;0,0157
1066,00;0,0157
1065,00;0,0157
1064,00;0,0157
1063,00;0,0157
1062,00;0,0157
1061,00;0,0156
1060,00;0,0155
1059,00;0,0155
1058,00;0,0154
1057,00;0,0153
1056,00;0,0153
1055,00;0,0152
1054,00;0,0151
1053,00;0,0150
1052,00;0,0149
1051,00;0,0148
1050,00;0,0148
1049,00;0,0147
1048,00;0,0146
1047,00;0,0145
1046,00;0,0145
1045,00;0,0144
1044,00;0,0144
1043,00;0,0143
1042,00;0,0143
1041,00;0,0142
1040,00;0,0142
1039,00;0,0141
1038,00;0,0140
1037,00;0,0139
1036,00;0,0139
1035,00;0,0138
1034,00;0,0138
1033,00;0,0138
1032,00;0,0137
1031,00;0,0137
1030,00;0,0136
1029,00;0,0135
1028,00;0,0135
1027,00;0,0134
1026,00;0,0133
1025,00;0,0133
1024,00;0,0132
1023,00;0,0131
1022,00;0,0131
1021,00;0,0130
1020,00;0,0130
1019,00;0,0129
1018,00;0,0129
1017,00;0,0129
1016,00;0,0128
1015,00;0,0128
1014,00;0,0128
1013,00;0,0128
1012,00;0,0128
1011,00;0,0128
1010,00;0,0127
1009,00;0,0127
1008,00;0,0126
1007,00;0,0126
1006,00;0,0126
1005,00;0,0126
1004,00;0,0127
1003,00;0,0127
1002,00;0,0128
1001,00;0,0129
1000,00;0,0129
999,00;0,0129
998,00;0,0129
997,00;0,0128
996,00;0,0128
995,00;0,0128
994,00;0,0128
993,00;0,0128
992,00;0,0128
991,00;0,0128
990,00;0,0127
989,00;0,0127
988,00;0,0126
987,00;0,0125
986,00;0,0124
985,00;0,0124
984,00;0,0123
983,00;0,0123
982,00;0,0122
981,00;0,0121
980,00;0,0120
979,00;0,0119
978,00;0,0118
977,00;0,0117
976,00;0,0116
975,00;0,0115
974,00;0,0114
973,00;0,0112
972,00;0,0110
971,00;0,0108
970,00;0,0107
969,00;0,0105
968,00;0,0104
967,00;0,0102
966,00;0,0100
965,00;0,0099
964,00;0,0097
963,00;0,0097
962,00;0,0096
961,00;0,0096
960,00;0,0095
959,00;0,0094
958,00;0,0093
957,00;0,0093
956,00;0,0092
955,00;0,0091
954,00;0,0091
953,00;0,0090
952,00;0,0089
951,00;0,0088
950,00;0,0087
949,00;0,0086
948,00;0,0085
947,00;0,0085
946,00;0,0084
945,00;0,0084
944,00;0,0083
943,00;0,0082
942,00;0,0081
941,00;0,0081
940,00;0,0081
939,00;0,0081
938,00;0,0080
937,00;0,0080
936,00;0,0079
935,00;0,0079
934,00;0,0079
933,00;0,0079
932,00;0,0079
931,00;0,0079
930,00;0,0078
929,00;0,0078
928,00;0,0078
927,00;0,0078
926,00;0,0078
925,00;0,0077
924,00;0,0077
923,00;0,0076
922,00;0,0075
921,00;0,0074
920,00;0,0073
919,00;0,0072
918,00;0,0071
917,00;0,0071
916,00;0,0071
915,00;0,0070
914,00;0,0070
913,00;0,0069
912,00;0,0068
911,00;0,0067
910,00;0,0066
909,00;0,0065
908,00;0,0064
907,00;0,0063
906,00;0,0063
905,00;0,0062
904,00;0,0062
903,00;0,0061
902,00;0,0061
901,00;0,0060
900,00;0,0060
899,00;0,0059
898,00;0,0059
897,00;0,0058
896,00;0,0058
895,00;0,0057
894,00;0,0057
893,00;0,0057
892,00;0,0057
891,00;0,0058
890,00;0,0057
889,00;0,0057
888,00;0,0056
887,00;0,0056
886,00;0,0056
885,00;0,0057
884,00;0,0057
883,00;0,0057
882,00;0,0057
881,00;0,0056
880,00;0,0056
879,00;0,0056
878,00;0,0055
877,00;0,0054
876,00;0,0053
875,00;0,0052
874,00;0,0052
873,00;0,0051
872,00;0,0051
871,00;0,0051
870,00;0,0050
869,00;0,0050
868,00;0,0050
867,00;0,0050
866,00;0,0049
865,00;0,0049
864,00;0,0048
863,00;0,0048
862,00;0,0048
861,00;0,0048
860,00;0,0048
859,00;0,0048
858,00;0,0048
857,00;0,0047
856,00;0,0047
855,00;0,0047
854,00;0,0047
853,00;0,0047
852,00;0,0047
851,00;0,0048
850,00;0,0048
849,00;0,0048
848,00;0,0048
847,00;0,0048
846,00;0,0048
845,00;0,0047
844,00;0,0047
843,00;0,0046
842,00;0,0046
841,00;0,0047
840,00;0,0047
839,00;0,0048
838,00;0,0048
837,00;0,0047
836,00;0,0047
835,00;0,0047
834,00;0,0046
833,00;0,0045
832,00;0,0045
831,00;0,0045
830,00;0,0044
829,00;0,0044
828,00;0,0044
827,00;0,0043
826,00;0,0043
825,00;0,0043
824,00;0,0043
823,00;0,0043
822,00;0,0043
821,00;0,0044
820,00;0,0044
819,00;0,0043
818,00;0,0043
817,00;0,0043
816,00;0,0043
815,00;0,0044
814,00;0,0044
813,00;0,0044
812,00;0,0044
811,00;0,0043
810,00;0,0043
809,00;0,0042
808,00;0,0042
807,00;0,0042
806,00;0,0043
805,00;0,0044
804,00;0,0045
803,00;0,0045
802,00;0,0045
801,00;0,0045
800,00;0,0046
799,00;0,0047
798,00;0,0048
797,00;0,0048
796,00;0,0048
795,00;0,0048
794,00;0,0048
793,00;0,0048
792,00;0,0048
791,00;0,0049
790,00;0,0049
789,00;0,0049
788,00;0,0049
787,00;0,0050
786,00;0,0050
785,00;0,0050
784,00;0,0050
783,00;0,0050
782,00;0,0050
781,00;0,0050
780,00;0,0051
779,00;0,0051
778,00;0,0052
777,00;0,0052
776,00;0,0053
775,00;0,0053
774,00;0,0053
773,00;0,0053
772,00;0,0053
771,00;0,0053
770,00;0,0054
769,00;0,0054
768,00;0,0055
767,00;0,0056
766,00;0,0056
765,00;0,0056
764,00;0,0056
763,00;0,0055
762,00;0,0055
761,00;0,0054
760,00;0,0054
759,00;0,0054
758,00;0,0054
757,00;0,0053
756,00;0,0052
755,00;0,0051
754,00;0,0051
753,00;0,0051
752,00;0,0051
751,00;0,0052
750,00;0,0052
749,00;0,0052
748,00;0,0052
747,00;0,0051
746,00;0,0050
745,00;0,0049
744,00;0,0049
743,00;0,0048
742,00;0,0047
741,00;0,0047
740,00;0,0046
739,00;0,0046
738,00;0,0045
737,00;0,0045
736,00;0,0044
735,00;0,0044
734,00;0,0044
733,00;0,0043
732,00;0,0043
731,00;0,0043
730,00;0,0043
729,00;0,0043
728,00;0,0044
727,00;0,0044
726,00;0,0044
725,00;0,0044
724,00;0,0043
723,00;0,0043
722,00;0,0042
721,00;0,0043
720,00;0,0043
719,00;0,0043
718,00;0,0044
717,00;0,0044
716,00;0,0044
715,00;0,0045
714,00;0,0045
713,00;0,0045
712,00;0,0046
711,00;0,0046
710,00;0,0047
709,00;0,0047
708,00;0,0047
707,00;0,0046
706,00;0,0045
705,00;0,0046
704,00;0,0047
703,00;0,0048
702,00;0,0048
701,00;0,0047
700,00;0,0046
699,00;0,0046
698,00;0,0045
697,00;0,0045
696,00;0,0045
695,00;0,0044
694,00;0,0044
693,00;0,0044
692,00;0,0044
691,00;0,0045
690,00;0,0046
689,00;0,0046
688,00;0,0046
687,00;0,0047
686,00;0,0048
685,00;0,0049
684,00;0,0049
683,00;0,0049
682,00;0,0049
681,00;0,0049
680,00;0,0050
679,00;0,0052
678,00;0,0053
677,00;0,0054
676,00;0,0055
675,00;0,0057
674,00;0,0059
673,00;0,0062
672,00;0,0064
671,00;0,0065
670,00;0,0066
669,00;0,0065
668,00;0,0067
667,00;0,0070
666,00;0,0073
665,00;0,0075
664,00;0,0078
663,00;0,0079
662,00;0,0081
661,00;0,0082
660,00;0,0083
659,00;0,0085
658,00;0,0087
657,00;0,0088
656,00;0,0090
655,00;0,0091
654,00;0,0092
653,00;0,0093
652,00;0,0095
651,00;0,0096
650,00;0,0096
649,00;0,0097
648,00;0,0099
647,00;0,0101
646,00;0,0104
645,00;0,0107
644,00;0,0110
643,00;0,0112
642,00;0,0113
641,00;0,0114
640,00;0,0115
639,00;0,0116
638,00;0,0118
637,00;0,0119
636,00;0,0121
635,00;0,0122
634,00;0,0124
633,00;0,0126
632,00;0,0128
631,00;0,0131
630,00;0,0134
629,00;0,0137
628,00;0,0138
627,00;0,0139
626,00;0,0141
625,00;0,0144
624,00;0,0148
623,00;0,0153
622,00;0,0156
621,00;0,0159
620,00;0,0162
619,00;0,0166
618,00;0,0170
617,00;0,0174
616,00;0,0178
615,00;0,0183
614,00;0,0188
613,00;0,0193
612,00;0,0198
611,00;0,0203
610,00;0,0207
609,00;0,0211
608,00;0,0215
607,00;0,0219
606,00;0,0223
605,00;0,0227
604,00;0,0232
603,00;0,0236
602,00;0,0240
601,00;0,0243
600,00;0,0247
599,00;0,0250
598,00;0,0253
597,00;0,0255
596,00;0,0257
595,00;0,0258
594,00;0,0259
593,00;0,0260
592,00;0,0262
591,00;0,0263
590,00;0,0265
589,00;0,0266
588,00;0,0268
587,00;0,0270
586,00;0,0272
585,00;0,0273
584,00;0,0273
583,00;0,0272
582,00;0,0270
581,00;0,0268
580,00;0,0265
579,00;0,0262
578,00;0,0259
577,00;0,0256
576,00;0,0254
575,00;0,0251
574,00;0,0247
573,00;0,0242
572,00;0,0236
571,00;0,0232
570,00;0,0229
569,00;0,0227
568,00;0,0224
567,00;0,0220
566,00;0,0215
565,00;0,0211
564,00;0,0205
563,00;0,0199
562,00;0,0195
561,00;0,0192
560,00;0,0190
559,00;0,0188
558,00;0,0186
557,00;0,0185
556,00;0,0185
555,00;0,0184
554,00;0,0180
553,00;0,0175
552,00;0,0170
551,00;0,0165
550,00;0,0161
549,00;0,0157
548,00;0,0154
547,00;0,0150
546,00;0,0147
545,00;0,0144
544,00;0,0143
543,00;0,0142
542,00;0,0141
541,00;0,0139
540,00;0,0136
539,00;0,0134
538,00;0,0132
537,00;0,0131
536,00;0,0129
535,00;0,0127
534,00;0,0125
533,00;0,0125
532,00;0,0125
531,00;0,0124
530,00;0,0123
529,00;0,0121
528,00;0,0120
527,00;0,0119
526,00;0,0116
525,00;0,0113
524,00;0,0110
523,00;0,0108
522,00;0,0107
521,00;0,0106
520,00;0,0106
519,00;0,0106
518,00;0,0106
517,00;0,0105
516,00;0,0102
515,00;0,0099
514,00;0,0096
513,00;0,0095
512,00;0,0095
511,00;0,0093
510,00;0,0090
509,00;0,0087
508,00;0,0084
507,00;0,0082
506,00;0,0081
505,00;0,0080
504,00;0,0079
503,00;0,0077
502,00;0,0075
501,00;0,0072
500,00;0,0071
499,00;0,0069
498,00;0,0069
497,00;0,0069
496,00;0,0070
495,00;0,0070
494,00;0,0070
493,00;0,0069
492,00;0,0069
491,00;0,0067
490,00;0,0065
489,00;0,0063
488,00;0,0062
487,00;0,0063
486,00;0,0065
485,00;0,0067
484,00;0,0068
483,00;0,0067
482,00;0,0066
481,00;0,0065
480,00;0,0064
479,00;0,0064
478,00;0,0065
477,00;0,0067
476,00;0,0069
475,00;0,0070
474,00;0,0068
473,00;0,0065
472,00;0,0062
471,00;0,0060
470,00;0,0059
469,00;0,0058
468,00;0,0057
467,00;0,0057
466,00;0,0057
465,00;0,0057
464,00;0,0058
463,00;0,0057
462,00;0,0056
461,00;0,0055
460,00;0,0054
459,00;0,0053
458,00;0,0051
457,00;0,0049
456,00;0,0048
455,00;0,0047
454,00;0,0046
453,00;0,0045
452,00;0,0045
451,00;0,0044
450,00;0,0043
