Создан как новый массив данных;Образец 009 полученный BalashovM Дата пятница, марта 03 2023
cm-1;A
4000,00;0,0082
3999,00;0,0082
3998,00;0,0082
3997,00;0,0082
3996,00;0,0082
3995,00;0,0082
3994,00;0,0082
3993,00;0,0082
3992,00;0,0082
3991,00;0,0082
3990,00;0,0082
3989,00;0,0082
3988,00;0,0082
3987,00;0,0082
3986,00;0,0082
3985,00;0,0082
3984,00;0,0082
3983,00;0,0082
3982,00;0,0082
3981,00;0,0082
3980,00;0,0082
3979,00;0,0082
3978,00;0,0082
3977,00;0,0082
3976,00;0,0082
3975,00;0,0082
3974,00;0,0082
3973,00;0,0082
3972,00;0,0082
3971,00;0,0082
3970,00;0,0082
3969,00;0,0082
3968,00;0,0082
3967,00;0,0082
3966,00;0,0082
3965,00;0,0082
3964,00;0,0082
3963,00;0,0082
3962,00;0,0082
3961,00;0,0082
3960,00;0,0082
3959,00;0,0082
3958,00;0,0082
3957,00;0,0082
3956,00;0,0082
3955,00;0,0082
3954,00;0,0082
3953,00;0,0082
3952,00;0,0082
3951,00;0,0082
3950,00;0,0082
3949,00;0,0082
3948,00;0,0082
3947,00;0,0082
3946,00;0,0082
3945,00;0,0082
3944,00;0,0082
3943,00;0,0082
3942,00;0,0082
3941,00;0,0082
3940,00;0,0082
3939,00;0,0082
3938,00;0,0082
3937,00;0,0082
3936,00;0,0082
3935,00;0,0082
3934,00;0,0082
3933,00;0,0082
3932,00;0,0082
3931,00;0,0082
3930,00;0,0082
3929,00;0,0082
3928,00;0,0082
3927,00;0,0082
3926,00;0,0082
3925,00;0,0083
3924,00;0,0083
3923,00;0,0083
3922,00;0,0083
3921,00;0,0083
3920,00;0,0083
3919,00;0,0083
3918,00;0,0083
3917,00;0,0083
3916,00;0,0083
3915,00;0,0083
3914,00;0,0083
3913,00;0,0083
3912,00;0,0083
3911,00;0,0083
3910,00;0,0083
3909,00;0,0083
3908,00;0,0083
3907,00;0,0083
3906,00;0,0083
3905,00;0,0083
3904,00;0,0083
3903,00;0,0083
3902,00;0,0083
3901,00;0,0083
3900,00;0,0083
3899,00;0,0083
3898,00;0,0083
3897,00;0,0083
3896,00;0,0083
3895,00;0,0083
3894,00;0,0083
3893,00;0,0083
3892,00;0,0083
3891,00;0,0083
3890,00;0,0083
3889,00;0,0083
3888,00;0,0083
3887,00;0,0083
3886,00;0,0083
3885,00;0,0083
3884,00;0,0083
3883,00;0,0083
3882,00;0,0083
3881,00;0,0083
3880,00;0,0083
3879,00;0,0083
3878,00;0,0083
3877,00;0,0083
3876,00;0,0083
3875,00;0,0082
3874,00;0,0082
3873,00;0,0083
3872,00;0,0083
3871,00;0,0083
3870,00;0,0083
3869,00;0,0083
3868,00;0,0082
3867,00;0,0083
3866,00;0,0083
3865,00;0,0083
3864,00;0,0083
3863,00;0,0083
3862,00;0,0083
3861,00;0,0083
3860,00;0,0082
3859,00;0,0082
3858,00;0,0082
3857,00;0,0082
3856,00;0,0082
3855,00;0,0082
3854,00;0,0082
3853,00;0,0082
3852,00;0,0082
3851,00;0,0082
3850,00;0,0082
3849,00;0,0082
3848,00;0,0082
3847,00;0,0083
3846,00;0,0083
3845,00;0,0083
3844,00;0,0083
3843,00;0,0083
3842,00;0,0083
3841,00;0,0083
3840,00;0,0083
3839,00;0,0083
3838,00;0,0083
3837,00;0,0083
3836,00;0,0083
3835,00;0,0083
3834,00;0,0083
3833,00;0,0083
3832,00;0,0083
3831,00;0,0083
3830,00;0,0083
3829,00;0,0083
3828,00;0,0083
3827,00;0,0083
3826,00;0,0083
3825,00;0,0083
3824,00;0,0083
3823,00;0,0083
3822,00;0,0083
3821,00;0,0083
3820,00;0,0083
3819,00;0,0083
3818,00;0,0083
3817,00;0,0083
3816,00;0,0083
3815,00;0,0083
3814,00;0,0083
3813,00;0,0083
3812,00;0,0083
3811,00;0,0083
3810,00;0,0083
3809,00;0,0083
3808,00;0,0083
3807,00;0,0083
3806,00;0,0083
3805,00;0,0083
3804,00;0,0083
3803,00;0,0083
3802,00;0,0083
3801,00;0,0083
3800,00;0,0083
3799,00;0,0083
3798,00;0,0084
3797,00;0,0084
3796,00;0,0084
3795,00;0,0084
3794,00;0,0084
3793,00;0,0084
3792,00;0,0084
3791,00;0,0084
3790,00;0,0084
3789,00;0,0084
3788,00;0,0084
3787,00;0,0084
3786,00;0,0084
3785,00;0,0084
3784,00;0,0084
3783,00;0,0084
3782,00;0,0084
3781,00;0,0084
3780,00;0,0084
3779,00;0,0084
3778,00;0,0084
3777,00;0,0084
3776,00;0,0084
3775,00;0,0084
3774,00;0,0084
3773,00;0,0084
3772,00;0,0084
3771,00;0,0084
3770,00;0,0084
3769,00;0,0084
3768,00;0,0084
3767,00;0,0084
3766,00;0,0084
3765,00;0,0084
3764,00;0,0084
3763,00;0,0084
3762,00;0,0084
3761,00;0,0084
3760,00;0,0084
3759,00;0,0084
3758,00;0,0084
3757,00;0,0084
3756,00;0,0084
3755,00;0,0084
3754,00;0,0084
3753,00;0,0083
3752,00;0,0083
3751,00;0,0083
3750,00;0,0083
3749,00;0,0083
3748,00;0,0083
3747,00;0,0083
3746,00;0,0084
3745,00;0,0084
3744,00;0,0084
3743,00;0,0084
3742,00;0,0084
3741,00;0,0084
3740,00;0,0084
3739,00;0,0084
3738,00;0,0084
3737,00;0,0084
3736,00;0,0084
3735,00;0,0084
3734,00;0,0084
3733,00;0,0084
3732,00;0,0084
3731,00;0,0084
3730,00;0,0084
3729,00;0,0084
3728,00;0,0084
3727,00;0,0084
3726,00;0,0084
3725,00;0,0084
3724,00;0,0084
3723,00;0,0084
3722,00;0,0084
3721,00;0,0084
3720,00;0,0085
3719,00;0,0085
3718,00;0,0085
3717,00;0,0085
3716,00;0,0085
3715,00;0,0085
3714,00;0,0085
3713,00;0,0085
3712,00;0,0085
3711,00;0,0085
3710,00;0,0085
3709,00;0,0085
3708,00;0,0085
3707,00;0,0085
3706,00;0,0085
3705,00;0,0086
3704,00;0,0086
3703,00;0,0086
3702,00;0,0086
3701,00;0,0086
3700,00;0,0086
3699,00;0,0086
3698,00;0,0087
3697,00;0,0087
3696,00;0,0087
3695,00;0,0087
3694,00;0,0087
3693,00;0,0087
3692,00;0,0087
3691,00;0,0087
3690,00;0,0087
3689,00;0,0087
3688,00;0,0087
3687,00;0,0087
3686,00;0,0087
3685,00;0,0087
3684,00;0,0087
3683,00;0,0087
3682,00;0,0087
3681,00;0,0087
3680,00;0,0087
3679,00;0,0087
3678,00;0,0087
3677,00;0,0087
3676,00;0,0087
3675,00;0,0087
3674,00;0,0087
3673,00;0,0087
3672,00;0,0087
3671,00;0,0087
3670,00;0,0087
3669,00;0,0087
3668,00;0,0087
3667,00;0,0088
3666,00;0,0088
3665,00;0,0088
3664,00;0,0089
3663,00;0,0089
3662,00;0,0089
3661,00;0,0090
3660,00;0,0090
3659,00;0,0090
3658,00;0,0090
3657,00;0,0090
3656,00;0,0090
3655,00;0,0090
3654,00;0,0090
3653,00;0,0090
3652,00;0,0090
3651,00;0,0090
3650,00;0,0090
3649,00;0,0090
3648,00;0,0091
3647,00;0,0091
3646,00;0,0092
3645,00;0,0092
3644,00;0,0093
3643,00;0,0093
3642,00;0,0094
3641,00;0,0094
3640,00;0,0095
3639,00;0,0095
3638,00;0,0095
3637,00;0,0095
3636,00;0,0095
3635,00;0,0096
3634,00;0,0096
3633,00;0,0096
3632,00;0,0096
3631,00;0,0096
3630,00;0,0096
3629,00;0,0097
3628,00;0,0097
3627,00;0,0098
3626,00;0,0098
3625,00;0,0099
3624,00;0,0099
3623,00;0,0099
3622,00;0,0100
3621,00;0,0100
3620,00;0,0101
3619,00;0,0101
3618,00;0,0102
3617,00;0,0102
3616,00;0,0102
3615,00;0,0102
3614,00;0,0103
3613,00;0,0103
3612,00;0,0104
3611,00;0,0104
3610,00;0,0104
3609,00;0,0105
3608,00;0,0105
3607,00;0,0105
3606,00;0,0106
3605,00;0,0106
3604,00;0,0107
3603,00;0,0107
3602,00;0,0108
3601,00;0,0108
3600,00;0,0109
3599,00;0,0109
3598,00;0,0110
3597,00;0,0110
3596,00;0,0110
3595,00;0,0111
3594,00;0,0111
3593,00;0,0111
3592,00;0,0112
3591,00;0,0112
3590,00;0,0113
3589,00;0,0113
3588,00;0,0113
3587,00;0,0114
3586,00;0,0114
3585,00;0,0115
3584,00;0,0115
3583,00;0,0116
3582,00;0,0116
3581,00;0,0116
3580,00;0,0117
3579,00;0,0117
3578,00;0,0118
3577,00;0,0118
3576,00;0,0118
3575,00;0,0119
3574,00;0,0119
3573,00;0,0120
3572,00;0,0120
3571,00;0,0120
3570,00;0,0121
3569,00;0,0121
3568,00;0,0121
3567,00;0,0122
3566,00;0,0122
3565,00;0,0123
3564,00;0,0123
3563,00;0,0124
3562,00;0,0125
3561,00;0,0125
3560,00;0,0126
3559,00;0,0126
3558,00;0,0126
3557,00;0,0127
3556,00;0,0127
3555,00;0,0127
3554,00;0,0128
3553,00;0,0128
3552,00;0,0129
3551,00;0,0129
3550,00;0,0130
3549,00;0,0130
3548,00;0,0130
3547,00;0,0131
3546,00;0,0131
3545,00;0,0131
3544,00;0,0132
3543,00;0,0132
3542,00;0,0133
3541,00;0,0133
3540,00;0,0134
3539,00;0,0134
3538,00;0,0134
3537,00;0,0135
3536,00;0,0135
3535,00;0,0136
3534,00;0,0136
3533,00;0,0136
3532,00;0,0136
3531,00;0,0137
3530,00;0,0137
3529,00;0,0138
3528,00;0,0138
3527,00;0,0139
3526,00;0,0139
3525,00;0,0139
3524,00;0,0140
3523,00;0,0140
3522,00;0,0141
3521,00;0,0141
3520,00;0,0142
3519,00;0,0142
3518,00;0,0142
3517,00;0,0143
3516,00;0,0143
3515,00;0,0143
3514,00;0,0143
3513,00;0,0144
3512,00;0,0144
3511,00;0,0144
3510,00;0,0145
3509,00;0,0145
3508,00;0,0145
3507,00;0,0146
3506,00;0,0146
3505,00;0,0146
3504,00;0,0147
3503,00;0,0147
3502,00;0,0148
3501,00;0,0148
3500,00;0,0148
3499,00;0,0149
3498,00;0,0149
3497,00;0,0149
3496,00;0,0150
3495,00;0,0150
3494,00;0,0150
3493,00;0,0151
3492,00;0,0151
3491,00;0,0151
3490,00;0,0151
3489,00;0,0152
3488,00;0,0152
3487,00;0,0152
3486,00;0,0152
3485,00;0,0152
3484,00;0,0153
3483,00;0,0153
3482,00;0,0153
3481,00;0,0153
3480,00;0,0154
3479,00;0,0154
3478,00;0,0154
3477,00;0,0155
3476,00;0,0155
3475,00;0,0155
3474,00;0,0155
3473,00;0,0156
3472,00;0,0156
3471,00;0,0157
3470,00;0,0157
3469,00;0,0158
3468,00;0,0158
3467,00;0,0158
3466,00;0,0158
3465,00;0,0158
3464,00;0,0159
3463,00;0,0159
3462,00;0,0159
3461,00;0,0159
3460,00;0,0160
3459,00;0,0160
3458,00;0,0160
3457,00;0,0160
3456,00;0,0160
3455,00;0,0160
3454,00;0,0161
3453,00;0,0161
3452,00;0,0161
3451,00;0,0162
3450,00;0,0162
3449,00;0,0162
3448,00;0,0162
3447,00;0,0162
3446,00;0,0163
3445,00;0,0163
3444,00;0,0163
3443,00;0,0163
3442,00;0,0163
3441,00;0,0163
3440,00;0,0163
3439,00;0,0163
3438,00;0,0164
3437,00;0,0164
3436,00;0,0164
3435,00;0,0165
3434,00;0,0165
3433,00;0,0165
3432,00;0,0165
3431,00;0,0165
3430,00;0,0165
3429,00;0,0165
3428,00;0,0166
3427,00;0,0166
3426,00;0,0166
3425,00;0,0166
3424,00;0,0167
3423,00;0,0167
3422,00;0,0167
3421,00;0,0167
3420,00;0,0167
3419,00;0,0167
3418,00;0,0167
3417,00;0,0167
3416,00;0,0168
3415,00;0,0168
3414,00;0,0168
3413,00;0,0168
3412,00;0,0168
3411,00;0,0168
3410,00;0,0168
3409,00;0,0168
3408,00;0,0168
3407,00;0,0168
3406,00;0,0168
3405,00;0,0168
3404,00;0,0168
3403,00;0,0168
3402,00;0,0168
3401,00;0,0168
3400,00;0,0168
3399,00;0,0169
3398,00;0,0169
3397,00;0,0169
3396,00;0,0169
3395,00;0,0169
3394,00;0,0169
3393,00;0,0169
3392,00;0,0169
3391,00;0,0169
3390,00;0,0170
3389,00;0,0170
3388,00;0,0170
3387,00;0,0170
3386,00;0,0170
3385,00;0,0170
3384,00;0,0170
3383,00;0,0170
3382,00;0,0170
3381,00;0,0170
3380,00;0,0170
3379,00;0,0171
3378,00;0,0171
3377,00;0,0171
3376,00;0,0171
3375,00;0,0171
3374,00;0,0171
3373,00;0,0171
3372,00;0,0171
3371,00;0,0171
3370,00;0,0171
3369,00;0,0171
3368,00;0,0171
3367,00;0,0171
3366,00;0,0171
3365,00;0,0171
3364,00;0,0171
3363,00;0,0171
3362,00;0,0171
3361,00;0,0171
3360,00;0,0171
3359,00;0,0171
3358,00;0,0171
3357,00;0,0171
3356,00;0,0171
3355,00;0,0171
3354,00;0,0171
3353,00;0,0171
3352,00;0,0171
3351,00;0,0171
3350,00;0,0171
3349,00;0,0171
3348,00;0,0172
3347,00;0,0172
3346,00;0,0172
3345,00;0,0171
3344,00;0,0171
3343,00;0,0171
3342,00;0,0171
3341,00;0,0171
3340,00;0,0171
3339,00;0,0171
3338,00;0,0171
3337,00;0,0171
3336,00;0,0171
3335,00;0,0171
3334,00;0,0171
3333,00;0,0171
3332,00;0,0171
3331,00;0,0171
3330,00;0,0171
3329,00;0,0171
3328,00;0,0171
3327,00;0,0170
3326,00;0,0170
3325,00;0,0170
3324,00;0,0170
3323,00;0,0171
3322,00;0,0171
3321,00;0,0171
3320,00;0,0171
3319,00;0,0170
3318,00;0,0170
3317,00;0,0170
3316,00;0,0170
3315,00;0,0170
3314,00;0,0170
3313,00;0,0170
3312,00;0,0170
3311,00;0,0169
3310,00;0,0169
3309,00;0,0169
3308,00;0,0168
3307,00;0,0168
3306,00;0,0168
3305,00;0,0168
3304,00;0,0168
3303,00;0,0169
3302,00;0,0169
3301,00;0,0169
3300,00;0,0169
3299,00;0,0168
3298,00;0,0168
3297,00;0,0168
3296,00;0,0168
3295,00;0,0168
3294,00;0,0168
3293,00;0,0167
3292,00;0,0167
3291,00;0,0167
3290,00;0,0168
3289,00;0,0168
3288,00;0,0168
3287,00;0,0168
3286,00;0,0168
3285,00;0,0168
3284,00;0,0168
3283,00;0,0168
3282,00;0,0168
3281,00;0,0168
3280,00;0,0168
3279,00;0,0168
3278,00;0,0167
3277,00;0,0167
3276,00;0,0167
3275,00;0,0167
3274,00;0,0167
3273,00;0,0166
3272,00;0,0166
3271,00;0,0166
3270,00;0,0166
3269,00;0,0166
3268,00;0,0167
3267,00;0,0167
3266,00;0,0167
3265,00;0,0167
3264,00;0,0167
3263,00;0,0167
3262,00;0,0167
3261,00;0,0167
3260,00;0,0167
3259,00;0,0167
3258,00;0,0167
3257,00;0,0167
3256,00;0,0167
3255,00;0,0167
3254,00;0,0167
3253,00;0,0167
3252,00;0,0167
3251,00;0,0167
3250,00;0,0167
3249,00;0,0166
3248,00;0,0166
3247,00;0,0166
3246,00;0,0167
3245,00;0,0167
3244,00;0,0167
3243,00;0,0167
3242,00;0,0167
3241,00;0,0167
3240,00;0,0167
3239,00;0,0166
3238,00;0,0166
3237,00;0,0166
3236,00;0,0166
3235,00;0,0165
3234,00;0,0165
3233,00;0,0165
3232,00;0,0166
3231,00;0,0166
3230,00;0,0166
3229,00;0,0165
3228,00;0,0165
3227,00;0,0165
3226,00;0,0165
3225,00;0,0165
3224,00;0,0165
3223,00;0,0165
3222,00;0,0165
3221,00;0,0164
3220,00;0,0164
3219,00;0,0164
3218,00;0,0164
3217,00;0,0164
3216,00;0,0164
3215,00;0,0164
3214,00;0,0164
3213,00;0,0164
3212,00;0,0164
3211,00;0,0164
3210,00;0,0163
3209,00;0,0163
3208,00;0,0163
3207,00;0,0163
3206,00;0,0163
3205,00;0,0163
3204,00;0,0162
3203,00;0,0162
3202,00;0,0162
3201,00;0,0162
3200,00;0,0162
3199,00;0,0162
3198,00;0,0162
3197,00;0,0162
3196,00;0,0161
3195,00;0,0161
3194,00;0,0161
3193,00;0,0161
3192,00;0,0161
3191,00;0,0161
3190,00;0,0161
3189,00;0,0160
3188,00;0,0160
3187,00;0,0160
3186,00;0,0160
3185,00;0,0160
3184,00;0,0160
3183,00;0,0160
3182,00;0,0160
3181,00;0,0159
3180,00;0,0159
3179,00;0,0159
3178,00;0,0159
3177,00;0,0159
3176,00;0,0159
3175,00;0,0159
3174,00;0,0158
3173,00;0,0158
3172,00;0,0158
3171,00;0,0158
3170,00;0,0158
3169,00;0,0158
3168,00;0,0158
3167,00;0,0157
3166,00;0,0157
3165,00;0,0157
3164,00;0,0157
3163,00;0,0157
3162,00;0,0157
3161,00;0,0157
3160,00;0,0156
3159,00;0,0156
3158,00;0,0156
3157,00;0,0156
3156,00;0,0156
3155,00;0,0156
3154,00;0,0156
3153,00;0,0155
3152,00;0,0155
3151,00;0,0155
3150,00;0,0155
3149,00;0,0155
3148,00;0,0155
3147,00;0,0155
3146,00;0,0154
3145,00;0,0154
3144,00;0,0154
3143,00;0,0154
3142,00;0,0154
3141,00;0,0154
3140,00;0,0154
3139,00;0,0153
3138,00;0,0153
3137,00;0,0153
3136,00;0,0153
3135,00;0,0153
3134,00;0,0153
3133,00;0,0153
3132,00;0,0153
3131,00;0,0152
3130,00;0,0152
3129,00;0,0152
3128,00;0,0152
3127,00;0,0152
3126,00;0,0152
3125,00;0,0152
3124,00;0,0152
3123,00;0,0151
3122,00;0,0151
3121,00;0,0151
3120,00;0,0151
3119,00;0,0150
3118,00;0,0150
3117,00;0,0150
3116,00;0,0150
3115,00;0,0150
3114,00;0,0150
3113,00;0,0150
3112,00;0,0150
3111,00;0,0150
3110,00;0,0150
3109,00;0,0150
3108,00;0,0149
3107,00;0,0149
3106,00;0,0149
3105,00;0,0149
3104,00;0,0149
3103,00;0,0149
3102,00;0,0148
3101,00;0,0148
3100,00;0,0148
3099,00;0,0148
3098,00;0,0148
3097,00;0,0148
3096,00;0,0148
3095,00;0,0148
3094,00;0,0148
3093,00;0,0147
3092,00;0,0147
3091,00;0,0147
3090,00;0,0147
3089,00;0,0146
3088,00;0,0146
3087,00;0,0146
3086,00;0,0146
3085,00;0,0146
3084,00;0,0146
3083,00;0,0145
3082,00;0,0145
3081,00;0,0145
3080,00;0,0145
3079,00;0,0145
3078,00;0,0145
3077,00;0,0145
3076,00;0,0145
3075,00;0,0145
3074,00;0,0144
3073,00;0,0144
3072,00;0,0144
3071,00;0,0144
3070,00;0,0144
3069,00;0,0144
3068,00;0,0144
3067,00;0,0143
3066,00;0,0143
3065,00;0,0143
3064,00;0,0143
3063,00;0,0143
3062,00;0,0143
3061,00;0,0143
3060,00;0,0143
3059,00;0,0142
3058,00;0,0142
3057,00;0,0142
3056,00;0,0142
3055,00;0,0142
3054,00;0,0141
3053,00;0,0141
3052,00;0,0141
3051,00;0,0141
3050,00;0,0141
3049,00;0,0141
3048,00;0,0141
3047,00;0,0140
3046,00;0,0140
3045,00;0,0140
3044,00;0,0140
3043,00;0,0140
3042,00;0,0140
3041,00;0,0140
3040,00;0,0140
3039,00;0,0140
3038,00;0,0140
3037,00;0,0140
3036,00;0,0139
3035,00;0,0139
3034,00;0,0139
3033,00;0,0139
3032,00;0,0139
3031,00;0,0139
3030,00;0,0139
3029,00;0,0138
3028,00;0,0138
3027,00;0,0138
3026,00;0,0138
3025,00;0,0138
3024,00;0,0137
3023,00;0,0137
3022,00;0,0137
3021,00;0,0137
3020,00;0,0136
3019,00;0,0136
3018,00;0,0136
3017,00;0,0135
3016,00;0,0135
3015,00;0,0135
3014,00;0,0135
3013,00;0,0135
3012,00;0,0135
3011,00;0,0135
3010,00;0,0136
3009,00;0,0136
3008,00;0,0136
3007,00;0,0136
3006,00;0,0136
3005,00;0,0136
3004,00;0,0136
3003,00;0,0136
3002,00;0,0136
3001,00;0,0136
3000,00;0,0136
2999,00;0,0135
2998,00;0,0135
2997,00;0,0136
2996,00;0,0136
2995,00;0,0136
2994,00;0,0136
2993,00;0,0135
2992,00;0,0135
2991,00;0,0135
2990,00;0,0135
2989,00;0,0135
2988,00;0,0135
2987,00;0,0135
2986,00;0,0135
2985,00;0,0135
2984,00;0,0135
2983,00;0,0135
2982,00;0,0135
2981,00;0,0135
2980,00;0,0134
2979,00;0,0134
2978,00;0,0134
2977,00;0,0133
2976,00;0,0133
2975,00;0,0133
2974,00;0,0133
2973,00;0,0132
2972,00;0,0132
2971,00;0,0131
2970,00;0,0130
2969,00;0,0129
2968,00;0,0129
2967,00;0,0128
2966,00;0,0128
2965,00;0,0127
2964,00;0,0127
2963,00;0,0127
2962,00;0,0126
2961,00;0,0126
2960,00;0,0125
2959,00;0,0125
2958,00;0,0124
2957,00;0,0124
2956,00;0,0124
2955,00;0,0123
2954,00;0,0123
2953,00;0,0123
2952,00;0,0122
2951,00;0,0122
2950,00;0,0122
2949,00;0,0122
2948,00;0,0121
2947,00;0,0121
2946,00;0,0120
2945,00;0,0119
2944,00;0,0119
2943,00;0,0118
2942,00;0,0117
2941,00;0,0117
2940,00;0,0116
2939,00;0,0115
2938,00;0,0114
2937,00;0,0112
2936,00;0,0111
2935,00;0,0110
2934,00;0,0108
2933,00;0,0107
2932,00;0,0106
2931,00;0,0105
2930,00;0,0103
2929,00;0,0103
2928,00;0,0102
2927,00;0,0101
2926,00;0,0100
2925,00;0,0100
2924,00;0,0099
2923,00;0,0099
2922,00;0,0099
2921,00;0,0100
2920,00;0,0100
2919,00;0,0101
2918,00;0,0102
2917,00;0,0103
2916,00;0,0104
2915,00;0,0105
2914,00;0,0106
2913,00;0,0107
2912,00;0,0108
2911,00;0,0109
2910,00;0,0110
2909,00;0,0110
2908,00;0,0111
2907,00;0,0112
2906,00;0,0113
2905,00;0,0113
2904,00;0,0113
2903,00;0,0113
2902,00;0,0113
2901,00;0,0114
2900,00;0,0114
2899,00;0,0114
2898,00;0,0114
2897,00;0,0114
2896,00;0,0115
2895,00;0,0115
2894,00;0,0115
2893,00;0,0115
2892,00;0,0115
2891,00;0,0116
2890,00;0,0116
2889,00;0,0116
2888,00;0,0116
2887,00;0,0116
2886,00;0,0117
2885,00;0,0116
2884,00;0,0116
2883,00;0,0116
2882,00;0,0116
2881,00;0,0116
2880,00;0,0116
2879,00;0,0115
2878,00;0,0115
2877,00;0,0115
2876,00;0,0115
2875,00;0,0114
2874,00;0,0114
2873,00;0,0113
2872,00;0,0113
2871,00;0,0113
2870,00;0,0113
2869,00;0,0113
2868,00;0,0112
2867,00;0,0112
2866,00;0,0112
2865,00;0,0111
2864,00;0,0111
2863,00;0,0110
2862,00;0,0109
2861,00;0,0108
2860,00;0,0107
2859,00;0,0106
2858,00;0,0105
2857,00;0,0104
2856,00;0,0103
2855,00;0,0102
2854,00;0,0102
2853,00;0,0101
2852,00;0,0102
2851,00;0,0102
2850,00;0,0103
2849,00;0,0105
2848,00;0,0106
2847,00;0,0107
2846,00;0,0109
2845,00;0,0110
2844,00;0,0110
2843,00;0,0111
2842,00;0,0112
2841,00;0,0113
2840,00;0,0113
2839,00;0,0113
2838,00;0,0113
2837,00;0,0113
2836,00;0,0113
2835,00;0,0113
2834,00;0,0114
2833,00;0,0114
2832,00;0,0114
2831,00;0,0114
2830,00;0,0114
2829,00;0,0114
2828,00;0,0114
2827,00;0,0114
2826,00;0,0114
2825,00;0,0114
2824,00;0,0114
2823,00;0,0114
2822,00;0,0114
2821,00;0,0114
2820,00;0,0114
2819,00;0,0114
2818,00;0,0114
2817,00;0,0114
2816,00;0,0114
2815,00;0,0114
2814,00;0,0114
2813,00;0,0114
2812,00;0,0114
2811,00;0,0114
2810,00;0,0114
2809,00;0,0114
2808,00;0,0115
2807,00;0,0115
2806,00;0,0114
2805,00;0,0114
2804,00;0,0114
2803,00;0,0114
2802,00;0,0114
2801,00;0,0114
2800,00;0,0114
2799,00;0,0114
2798,00;0,0113
2797,00;0,0113
2796,00;0,0113
2795,00;0,0113
2794,00;0,0113
2793,00;0,0113
2792,00;0,0113
2791,00;0,0113
2790,00;0,0113
2789,00;0,0113
2788,00;0,0113
2787,00;0,0113
2786,00;0,0113
2785,00;0,0113
2784,00;0,0113
2783,00;0,0113
2782,00;0,0113
2781,00;0,0113
2780,00;0,0113
2779,00;0,0113
2778,00;0,0112
2777,00;0,0112
2776,00;0,0112
2775,00;0,0112
2774,00;0,0112
2773,00;0,0112
2772,00;0,0112
2771,00;0,0112
2770,00;0,0112
2769,00;0,0112
2768,00;0,0112
2767,00;0,0112
2766,00;0,0112
2765,00;0,0111
2764,00;0,0111
2763,00;0,0111
2762,00;0,0111
2761,00;0,0111
2760,00;0,0111
2759,00;0,0111
2758,00;0,0111
2757,00;0,0111
2756,00;0,0111
2755,00;0,0111
2754,00;0,0111
2753,00;0,0111
2752,00;0,0111
2751,00;0,0111
2750,00;0,0111
2749,00;0,0110
2748,00;0,0110
2747,00;0,0110
2746,00;0,0110
2745,00;0,0110
2744,00;0,0110
2743,00;0,0110
2742,00;0,0110
2741,00;0,0110
2740,00;0,0110
2739,00;0,0110
2738,00;0,0110
2737,00;0,0110
2736,00;0,0110
2735,00;0,0109
2734,00;0,0109
2733,00;0,0109
2732,00;0,0109
2731,00;0,0109
2730,00;0,0109
2729,00;0,0109
2728,00;0,0109
2727,00;0,0109
2726,00;0,0109
2725,00;0,0109
2724,00;0,0109
2723,00;0,0109
2722,00;0,0109
2721,00;0,0109
2720,00;0,0109
2719,00;0,0109
2718,00;0,0108
2717,00;0,0108
2716,00;0,0108
2715,00;0,0108
2714,00;0,0108
2713,00;0,0108
2712,00;0,0108
2711,00;0,0108
2710,00;0,0108
2709,00;0,0108
2708,00;0,0108
2707,00;0,0108
2706,00;0,0108
2705,00;0,0108
2704,00;0,0108
2703,00;0,0108
2702,00;0,0108
2701,00;0,0108
2700,00;0,0108
2699,00;0,0108
2698,00;0,0108
2697,00;0,0108
2696,00;0,0107
2695,00;0,0107
2694,00;0,0107
2693,00;0,0107
2692,00;0,0107
2691,00;0,0107
2690,00;0,0107
2689,00;0,0107
2688,00;0,0107
2687,00;0,0107
2686,00;0,0107
2685,00;0,0107
2684,00;0,0107
2683,00;0,0107
2682,00;0,0107
2681,00;0,0107
2680,00;0,0107
2679,00;0,0106
2678,00;0,0106
2677,00;0,0106
2676,00;0,0106
2675,00;0,0106
2674,00;0,0106
2673,00;0,0107
2672,00;0,0107
2671,00;0,0107
2670,00;0,0107
2669,00;0,0107
2668,00;0,0107
2667,00;0,0107
2666,00;0,0107
2665,00;0,0108
2664,00;0,0108
2663,00;0,0108
2662,00;0,0109
2661,00;0,0109
2660,00;0,0109
2659,00;0,0110
2658,00;0,0110
2657,00;0,0109
2656,00;0,0110
2655,00;0,0110
2654,00;0,0110
2653,00;0,0110
2652,00;0,0110
2651,00;0,0110
2650,00;0,0110
2649,00;0,0110
2648,00;0,0110
2647,00;0,0110
2646,00;0,0110
2645,00;0,0110
2644,00;0,0110
2643,00;0,0110
2642,00;0,0110
2641,00;0,0110
2640,00;0,0110
2639,00;0,0110
2638,00;0,0109
2637,00;0,0109
2636,00;0,0109
2635,00;0,0109
2634,00;0,0109
2633,00;0,0109
2632,00;0,0109
2631,00;0,0108
2630,00;0,0108
2629,00;0,0108
2628,00;0,0108
2627,00;0,0108
2626,00;0,0108
2625,00;0,0107
2624,00;0,0107
2623,00;0,0107
2622,00;0,0107
2621,00;0,0107
2620,00;0,0108
2619,00;0,0108
2618,00;0,0108
2617,00;0,0108
2616,00;0,0108
2615,00;0,0107
2614,00;0,0107
2613,00;0,0107
2612,00;0,0107
2611,00;0,0107
2610,00;0,0107
2609,00;0,0107
2608,00;0,0107
2607,00;0,0106
2606,00;0,0106
2605,00;0,0106
2604,00;0,0106
2603,00;0,0106
2602,00;0,0106
2601,00;0,0105
2600,00;0,0105
2599,00;0,0105
2598,00;0,0105
2597,00;0,0105
2596,00;0,0105
2595,00;0,0105
2594,00;0,0105
2593,00;0,0105
2592,00;0,0105
2591,00;0,0104
2590,00;0,0104
2589,00;0,0104
2588,00;0,0104
2587,00;0,0104
2586,00;0,0104
2585,00;0,0104
2584,00;0,0104
2583,00;0,0104
2582,00;0,0104
2581,00;0,0103
2580,00;0,0103
2579,00;0,0103
2578,00;0,0103
2577,00;0,0103
2576,00;0,0103
2575,00;0,0103
2574,00;0,0103
2573,00;0,0102
2572,00;0,0102
2571,00;0,0102
2570,00;0,0102
2569,00;0,0102
2568,00;0,0102
2567,00;0,0102
2566,00;0,0102
2565,00;0,0102
2564,00;0,0102
2563,00;0,0102
2562,00;0,0102
2561,00;0,0102
2560,00;0,0102
2559,00;0,0101
2558,00;0,0101
2557,00;0,0101
2556,00;0,0101
2555,00;0,0101
2554,00;0,0101
2553,00;0,0101
2552,00;0,0101
2551,00;0,0101
2550,00;0,0101
2549,00;0,0101
2548,00;0,0101
2547,00;0,0101
2546,00;0,0101
2545,00;0,0101
2544,00;0,0101
2543,00;0,0100
2542,00;0,0100
2541,00;0,0100
2540,00;0,0100
2539,00;0,0100
2538,00;0,0100
2537,00;0,0100
2536,00;0,0100
2535,00;0,0100
2534,00;0,0100
2533,00;0,0100
2532,00;0,0100
2531,00;0,0100
2530,00;0,0100
2529,00;0,0100
2528,00;0,0100
2527,00;0,0100
2526,00;0,0100
2525,00;0,0100
2524,00;0,0099
2523,00;0,0099
2522,00;0,0099
2521,00;0,0099
2520,00;0,0099
2519,00;0,0099
2518,00;0,0099
2517,00;0,0099
2516,00;0,0099
2515,00;0,0099
2514,00;0,0099
2513,00;0,0099
2512,00;0,0099
2511,00;0,0099
2510,00;0,0099
2509,00;0,0099
2508,00;0,0099
2507,00;0,0099
2506,00;0,0099
2505,00;0,0099
2504,00;0,0099
2503,00;0,0098
2502,00;0,0098
2501,00;0,0098
2500,00;0,0098
2499,00;0,0098
2498,00;0,0098
2497,00;0,0098
2496,00;0,0098
2495,00;0,0098
2494,00;0,0098
2493,00;0,0098
2492,00;0,0098
2491,00;0,0098
2490,00;0,0098
2489,00;0,0098
2488,00;0,0098
2487,00;0,0097
2486,00;0,0097
2485,00;0,0097
2484,00;0,0097
2483,00;0,0097
2482,00;0,0097
2481,00;0,0098
2480,00;0,0098
2479,00;0,0098
2478,00;0,0098
2477,00;0,0098
2476,00;0,0097
2475,00;0,0097
2474,00;0,0097
2473,00;0,0097
2472,00;0,0097
2471,00;0,0097
2470,00;0,0097
2469,00;0,0097
2468,00;0,0097
2467,00;0,0097
2466,00;0,0098
2465,00;0,0098
2464,00;0,0098
2463,00;0,0098
2462,00;0,0098
2461,00;0,0098
2460,00;0,0098
2459,00;0,0098
2458,00;0,0097
2457,00;0,0097
2456,00;0,0098
2455,00;0,0098
2454,00;0,0098
2453,00;0,0098
2452,00;0,0098
2451,00;0,0098
2450,00;0,0098
2449,00;0,0098
2448,00;0,0098
2447,00;0,0098
2446,00;0,0098
2445,00;0,0098
2444,00;0,0097
2443,00;0,0097
2442,00;0,0097
2441,00;0,0097
2440,00;0,0097
2439,00;0,0097
2438,00;0,0097
2437,00;0,0097
2436,00;0,0097
2435,00;0,0097
2434,00;0,0097
2433,00;0,0097
2432,00;0,0097
2431,00;0,0097
2430,00;0,0097
2429,00;0,0096
2428,00;0,0096
2427,00;0,0096
2426,00;0,0096
2425,00;0,0096
2424,00;0,0097
2423,00;0,0097
2422,00;0,0096
2421,00;0,0096
2420,00;0,0096
2419,00;0,0096
2418,00;0,0096
2417,00;0,0096
2416,00;0,0096
2415,00;0,0096
2414,00;0,0096
2413,00;0,0096
2412,00;0,0096
2411,00;0,0095
2410,00;0,0095
2409,00;0,0095
2408,00;0,0095
2407,00;0,0094
2406,00;0,0094
2405,00;0,0094
2404,00;0,0095
2403,00;0,0095
2402,00;0,0095
2401,00;0,0095
2400,00;0,0095
2399,00;0,0095
2398,00;0,0095
2397,00;0,0095
2396,00;0,0095
2395,00;0,0095
2394,00;0,0095
2393,00;0,0095
2392,00;0,0095
2391,00;0,0095
2390,00;0,0096
2389,00;0,0096
2388,00;0,0097
2387,00;0,0097
2386,00;0,0097
2385,00;0,0098
2384,00;0,0098
2383,00;0,0099
2382,00;0,0099
2381,00;0,0099
2380,00;0,0099
2379,00;0,0098
2378,00;0,0098
2377,00;0,0098
2376,00;0,0098
2375,00;0,0099
2374,00;0,0099
2373,00;0,0100
2372,00;0,0100
2371,00;0,0101
2370,00;0,0101
2369,00;0,0101
2368,00;0,0102
2367,00;0,0102
2366,00;0,0102
2365,00;0,0102
2364,00;0,0103
2363,00;0,0103
2362,00;0,0103
2361,00;0,0104
2360,00;0,0105
2359,00;0,0105
2358,00;0,0106
2357,00;0,0105
2356,00;0,0105
2355,00;0,0105
2354,00;0,0105
2353,00;0,0106
2352,00;0,0106
2351,00;0,0106
2350,00;0,0107
2349,00;0,0107
2348,00;0,0107
2347,00;0,0108
2346,00;0,0108
2345,00;0,0109
2344,00;0,0109
2343,00;0,0109
2342,00;0,0109
2341,00;0,0109
2340,00;0,0109
2339,00;0,0109
2338,00;0,0110
2337,00;0,0110
2336,00;0,0110
2335,00;0,0109
2334,00;0,0109
2333,00;0,0109
2332,00;0,0108
2331,00;0,0109
2330,00;0,0109
2329,00;0,0110
2328,00;0,0111
2327,00;0,0112
2326,00;0,0114
2325,00;0,0115
2324,00;0,0115
2323,00;0,0115
2322,00;0,0115
2321,00;0,0114
2320,00;0,0113
2319,00;0,0112
2318,00;0,0112
2317,00;0,0112
2316,00;0,0111
2315,00;0,0111
2314,00;0,0111
2313,00;0,0111
2312,00;0,0111
2311,00;0,0110
2310,00;0,0110
2309,00;0,0110
2308,00;0,0110
2307,00;0,0110
2306,00;0,0110
2305,00;0,0110
2304,00;0,0110
2303,00;0,0109
2302,00;0,0109
2301,00;0,0109
2300,00;0,0109
2299,00;0,0109
2298,00;0,0109
2297,00;0,0109
2296,00;0,0109
2295,00;0,0109
2294,00;0,0109
2293,00;0,0109
2292,00;0,0109
2291,00;0,0108
2290,00;0,0108
2289,00;0,0108
2288,00;0,0108
2287,00;0,0108
2286,00;0,0108
2285,00;0,0108
2284,00;0,0108
2283,00;0,0108
2282,00;0,0107
2281,00;0,0107
2280,00;0,0106
2279,00;0,0106
2278,00;0,0106
2277,00;0,0105
2276,00;0,0105
2275,00;0,0104
2274,00;0,0104
2273,00;0,0104
2272,00;0,0104
2271,00;0,0104
2270,00;0,0103
2269,00;0,0103
2268,00;0,0103
2267,00;0,0103
2266,00;0,0103
2265,00;0,0102
2264,00;0,0102
2263,00;0,0102
2262,00;0,0102
2261,00;0,0102
2260,00;0,0102
2259,00;0,0102
2258,00;0,0102
2257,00;0,0102
2256,00;0,0102
2255,00;0,0101
2254,00;0,0101
2253,00;0,0101
2252,00;0,0101
2251,00;0,0101
2250,00;0,0100
2249,00;0,0100
2248,00;0,0100
2247,00;0,0100
2246,00;0,0100
2245,00;0,0100
2244,00;0,0100
2243,00;0,0100
2242,00;0,0100
2241,00;0,0100
2240,00;0,0100
2239,00;0,0100
2238,00;0,0100
2237,00;0,0100
2236,00;0,0100
2235,00;0,0100
2234,00;0,0100
2233,00;0,0100
2232,00;0,0100
2231,00;0,0099
2230,00;0,0099
2229,00;0,0099
2228,00;0,0099
2227,00;0,0099
2226,00;0,0099
2225,00;0,0099
2224,00;0,0099
2223,00;0,0099
2222,00;0,0099
2221,00;0,0099
2220,00;0,0099
2219,00;0,0099
2218,00;0,0099
2217,00;0,0099
2216,00;0,0099
2215,00;0,0099
2214,00;0,0099
2213,00;0,0099
2212,00;0,0099
2211,00;0,0099
2210,00;0,0100
2209,00;0,0099
2208,00;0,0099
2207,00;0,0099
2206,00;0,0099
2205,00;0,0099
2204,00;0,0099
2203,00;0,0099
2202,00;0,0099
2201,00;0,0099
2200,00;0,0098
2199,00;0,0098
2198,00;0,0098
2197,00;0,0097
2196,00;0,0097
2195,00;0,0097
2194,00;0,0098
2193,00;0,0098
2192,00;0,0098
2191,00;0,0099
2190,00;0,0099
2189,00;0,0100
2188,00;0,0100
2187,00;0,0100
2186,00;0,0100
2185,00;0,0099
2184,00;0,0098
2183,00;0,0096
2182,00;0,0095
2181,00;0,0094
2180,00;0,0094
2179,00;0,0094
2178,00;0,0094
2177,00;0,0094
2176,00;0,0093
2175,00;0,0093
2174,00;0,0093
2173,00;0,0094
2172,00;0,0095
2171,00;0,0095
2170,00;0,0096
2169,00;0,0096
2168,00;0,0097
2167,00;0,0097
2166,00;0,0097
2165,00;0,0097
2164,00;0,0098
2163,00;0,0099
2162,00;0,0100
2161,00;0,0099
2160,00;0,0096
2159,00;0,0091
2158,00;0,0086
2157,00;0,0083
2156,00;0,0082
2155,00;0,0083
2154,00;0,0083
2153,00;0,0084
2152,00;0,0084
2151,00;0,0084
2150,00;0,0084
2149,00;0,0083
2148,00;0,0083
2147,00;0,0082
2146,00;0,0082
2145,00;0,0082
2144,00;0,0083
2143,00;0,0084
2142,00;0,0084
2141,00;0,0084
2140,00;0,0084
2139,00;0,0084
2138,00;0,0084
2137,00;0,0083
2136,00;0,0082
2135,00;0,0081
2134,00;0,0080
2133,00;0,0081
2132,00;0,0081
2131,00;0,0083
2130,00;0,0083
2129,00;0,0084
2128,00;0,0084
2127,00;0,0084
2126,00;0,0084
2125,00;0,0085
2124,00;0,0086
2123,00;0,0087
2122,00;0,0087
2121,00;0,0088
2120,00;0,0088
2119,00;0,0089
2118,00;0,0089
2117,00;0,0090
2116,00;0,0090
2115,00;0,0091
2114,00;0,0091
2113,00;0,0091
2112,00;0,0091
2111,00;0,0091
2110,00;0,0091
2109,00;0,0091
2108,00;0,0091
2107,00;0,0091
2106,00;0,0092
2105,00;0,0092
2104,00;0,0092
2103,00;0,0092
2102,00;0,0092
2101,00;0,0091
2100,00;0,0092
2099,00;0,0092
2098,00;0,0092
2097,00;0,0091
2096,00;0,0091
2095,00;0,0091
2094,00;0,0091
2093,00;0,0091
2092,00;0,0092
2091,00;0,0092
2090,00;0,0093
2089,00;0,0092
2088,00;0,0092
2087,00;0,0092
2086,00;0,0093
2085,00;0,0093
2084,00;0,0093
2083,00;0,0093
2082,00;0,0093
2081,00;0,0093
2080,00;0,0093
2079,00;0,0093
2078,00;0,0093
2077,00;0,0093
2076,00;0,0093
2075,00;0,0093
2074,00;0,0093
2073,00;0,0094
2072,00;0,0094
2071,00;0,0093
2070,00;0,0093
2069,00;0,0093
2068,00;0,0094
2067,00;0,0094
2066,00;0,0094
2065,00;0,0094
2064,00;0,0094
2063,00;0,0094
2062,00;0,0094
2061,00;0,0094
2060,00;0,0094
2059,00;0,0094
2058,00;0,0094
2057,00;0,0094
2056,00;0,0094
2055,00;0,0094
2054,00;0,0094
2053,00;0,0095
2052,00;0,0095
2051,00;0,0096
2050,00;0,0095
2049,00;0,0094
2048,00;0,0093
2047,00;0,0093
2046,00;0,0092
2045,00;0,0092
2044,00;0,0092
2043,00;0,0092
2042,00;0,0092
2041,00;0,0092
2040,00;0,0092
2039,00;0,0092
2038,00;0,0092
2037,00;0,0092
2036,00;0,0092
2035,00;0,0091
2034,00;0,0091
2033,00;0,0090
2032,00;0,0090
2031,00;0,0090
2030,00;0,0090
2029,00;0,0090
2028,00;0,0089
2027,00;0,0089
2026,00;0,0088
2025,00;0,0088
2024,00;0,0088
2023,00;0,0088
2022,00;0,0088
2021,00;0,0088
2020,00;0,0088
2019,00;0,0088
2018,00;0,0088
2017,00;0,0088
2016,00;0,0088
2015,00;0,0088
2014,00;0,0088
2013,00;0,0088
2012,00;0,0089
2011,00;0,0088
2010,00;0,0088
2009,00;0,0087
2008,00;0,0086
2007,00;0,0086
2006,00;0,0085
2005,00;0,0085
2004,00;0,0085
2003,00;0,0085
2002,00;0,0086
2001,00;0,0086
2000,00;0,0087
1999,00;0,0087
1998,00;0,0087
1997,00;0,0086
1996,00;0,0085
1995,00;0,0085
1994,00;0,0084
1993,00;0,0085
1992,00;0,0085
1991,00;0,0086
1990,00;0,0086
1989,00;0,0086
1988,00;0,0087
1987,00;0,0087
1986,00;0,0087
1985,00;0,0087
1984,00;0,0087
1983,00;0,0088
1982,00;0,0088
1981,00;0,0089
1980,00;0,0090
1979,00;0,0089
1978,00;0,0088
1977,00;0,0087
1976,00;0,0086
1975,00;0,0086
1974,00;0,0084
1973,00;0,0083
1972,00;0,0083
1971,00;0,0084
1970,00;0,0084
1969,00;0,0084
1968,00;0,0083
1967,00;0,0083
1966,00;0,0083
1965,00;0,0083
1964,00;0,0084
1963,00;0,0084
1962,00;0,0084
1961,00;0,0083
1960,00;0,0082
1959,00;0,0081
1958,00;0,0081
1957,00;0,0081
1956,00;0,0082
1955,00;0,0083
1954,00;0,0083
1953,00;0,0084
1952,00;0,0084
1951,00;0,0084
1950,00;0,0083
1949,00;0,0083
1948,00;0,0084
1947,00;0,0084
1946,00;0,0084
1945,00;0,0084
1944,00;0,0083
1943,00;0,0083
1942,00;0,0083
1941,00;0,0082
1940,00;0,0082
1939,00;0,0082
1938,00;0,0082
1937,00;0,0082
1936,00;0,0082
1935,00;0,0082
1934,00;0,0083
1933,00;0,0083
1932,00;0,0083
1931,00;0,0082
1930,00;0,0082
1929,00;0,0082
1928,00;0,0082
1927,00;0,0082
1926,00;0,0082
1925,00;0,0082
1924,00;0,0083
1923,00;0,0083
1922,00;0,0084
1921,00;0,0084
1920,00;0,0084
1919,00;0,0084
1918,00;0,0084
1917,00;0,0084
1916,00;0,0084
1915,00;0,0083
1914,00;0,0083
1913,00;0,0083
1912,00;0,0083
1911,00;0,0083
1910,00;0,0083
1909,00;0,0083
1908,00;0,0083
1907,00;0,0083
1906,00;0,0083
1905,00;0,0083
1904,00;0,0083
1903,00;0,0083
1902,00;0,0083
1901,00;0,0083
1900,00;0,0083
1899,00;0,0082
1898,00;0,0082
1897,00;0,0082
1896,00;0,0082
1895,00;0,0083
1894,00;0,0083
1893,00;0,0083
1892,00;0,0083
1891,00;0,0083
1890,00;0,0083
1889,00;0,0083
1888,00;0,0083
1887,00;0,0083
1886,00;0,0083
1885,00;0,0082
1884,00;0,0082
1883,00;0,0082
1882,00;0,0082
1881,00;0,0082
1880,00;0,0082
1879,00;0,0082
1878,00;0,0082
1877,00;0,0082
1876,00;0,0082
1875,00;0,0082
1874,00;0,0082
1873,00;0,0082
1872,00;0,0082
1871,00;0,0082
1870,00;0,0082
1869,00;0,0082
1868,00;0,0082
1867,00;0,0082
1866,00;0,0082
1865,00;0,0082
1864,00;0,0082
1863,00;0,0082
1862,00;0,0082
1861,00;0,0082
1860,00;0,0082
1859,00;0,0082
1858,00;0,0082
1857,00;0,0082
1856,00;0,0082
1855,00;0,0082
1854,00;0,0082
1853,00;0,0082
1852,00;0,0082
1851,00;0,0082
1850,00;0,0082
1849,00;0,0082
1848,00;0,0082
1847,00;0,0082
1846,00;0,0082
1845,00;0,0082
1844,00;0,0082
1843,00;0,0082
1842,00;0,0082
1841,00;0,0082
1840,00;0,0082
1839,00;0,0082
1838,00;0,0082
1837,00;0,0082
1836,00;0,0082
1835,00;0,0082
1834,00;0,0082
1833,00;0,0082
1832,00;0,0082
1831,00;0,0082
1830,00;0,0082
1829,00;0,0082
1828,00;0,0082
1827,00;0,0082
1826,00;0,0082
1825,00;0,0082
1824,00;0,0082
1823,00;0,0082
1822,00;0,0082
1821,00;0,0082
1820,00;0,0082
1819,00;0,0082
1818,00;0,0082
1817,00;0,0082
1816,00;0,0082
1815,00;0,0082
1814,00;0,0082
1813,00;0,0082
1812,00;0,0083
1811,00;0,0083
1810,00;0,0083
1809,00;0,0083
1808,00;0,0083
1807,00;0,0083
1806,00;0,0083
1805,00;0,0083
1804,00;0,0083
1803,00;0,0083
1802,00;0,0083
1801,00;0,0083
1800,00;0,0083
1799,00;0,0083
1798,00;0,0084
1797,00;0,0084
1796,00;0,0084
1795,00;0,0084
1794,00;0,0084
1793,00;0,0084
1792,00;0,0084
1791,00;0,0085
1790,00;0,0085
1789,00;0,0085
1788,00;0,0084
1787,00;0,0084
1786,00;0,0084
1785,00;0,0084
1784,00;0,0085
1783,00;0,0085
1782,00;0,0085
1781,00;0,0084
1780,00;0,0084
1779,00;0,0084
1778,00;0,0084
1777,00;0,0084
1776,00;0,0083
1775,00;0,0083
1774,00;0,0083
1773,00;0,0083
1772,00;0,0085
1771,00;0,0086
1770,00;0,0086
1769,00;0,0086
1768,00;0,0086
1767,00;0,0087
1766,00;0,0087
1765,00;0,0086
1764,00;0,0085
1763,00;0,0085
1762,00;0,0085
1761,00;0,0086
1760,00;0,0087
1759,00;0,0086
1758,00;0,0085
1757,00;0,0085
1756,00;0,0085
1755,00;0,0084
1754,00;0,0083
1753,00;0,0082
1752,00;0,0082
1751,00;0,0082
1750,00;0,0082
1749,00;0,0082
1748,00;0,0082
1747,00;0,0083
1746,00;0,0083
1745,00;0,0084
1744,00;0,0084
1743,00;0,0085
1742,00;0,0085
1741,00;0,0086
1740,00;0,0088
1739,00;0,0091
1738,00;0,0094
1737,00;0,0095
1736,00;0,0098
1735,00;0,0102
1734,00;0,0107
1733,00;0,0113
1732,00;0,0116
1731,00;0,0117
1730,00;0,0119
1729,00;0,0122
1728,00;0,0125
1727,00;0,0129
1726,00;0,0133
1725,00;0,0138
1724,00;0,0143
1723,00;0,0148
1722,00;0,0153
1721,00;0,0157
1720,00;0,0162
1719,00;0,0170
1718,00;0,0179
1717,00;0,0189
1716,00;0,0198
1715,00;0,0205
1714,00;0,0212
1713,00;0,0219
1712,00;0,0227
1711,00;0,0235
1710,00;0,0243
1709,00;0,0251
1708,00;0,0260
1707,00;0,0269
1706,00;0,0279
1705,00;0,0290
1704,00;0,0299
1703,00;0,0308
1702,00;0,0316
1701,00;0,0327
1700,00;0,0341
1699,00;0,0353
1698,00;0,0363
1697,00;0,0372
1696,00;0,0383
1695,00;0,0393
1694,00;0,0402
1693,00;0,0410
1692,00;0,0417
1691,00;0,0426
1690,00;0,0435
1689,00;0,0444
1688,00;0,0453
1687,00;0,0462
1686,00;0,0470
1685,00;0,0479
1684,00;0,0488
1683,00;0,0496
1682,00;0,0503
1681,00;0,0511
1680,00;0,0518
1679,00;0,0525
1678,00;0,0532
1677,00;0,0540
1676,00;0,0547
1675,00;0,0554
1674,00;0,0561
1673,00;0,0567
1672,00;0,0573
1671,00;0,0579
1670,00;0,0584
1669,00;0,0590
1668,00;0,0597
1667,00;0,0604
1666,00;0,0610
1665,00;0,0616
1664,00;0,0622
1663,00;0,0627
1662,00;0,0631
1661,00;0,0636
1660,00;0,0641
1659,00;0,0647
1658,00;0,0652
1657,00;0,0657
1656,00;0,0664
1655,00;0,0670
1654,00;0,0673
1653,00;0,0674
1652,00;0,0676
1651,00;0,0679
1650,00;0,0682
1649,00;0,0686
1648,00;0,0690
1647,00;0,0692
1646,00;0,0694
1645,00;0,0696
1644,00;0,0700
1643,00;0,0704
1642,00;0,0707
1641,00;0,0710
1640,00;0,0713
1639,00;0,0717
1638,00;0,0720
1637,00;0,0722
1636,00;0,0722
1635,00;0,0721
1634,00;0,0721
1633,00;0,0723
1632,00;0,0726
1631,00;0,0729
1630,00;0,0730
1629,00;0,0730
1628,00;0,0731
1627,00;0,0731
1626,00;0,0731
1625,00;0,0731
1624,00;0,0730
1623,00;0,0728
1622,00;0,0726
1621,00;0,0725
1620,00;0,0726
1619,00;0,0726
1618,00;0,0723
1617,00;0,0716
1616,00;0,0707
1615,00;0,0699
1614,00;0,0693
1613,00;0,0687
1612,00;0,0680
1611,00;0,0672
1610,00;0,0662
1609,00;0,0651
1608,00;0,0639
1607,00;0,0626
1606,00;0,0614
1605,00;0,0601
1604,00;0,0588
1603,00;0,0575
1602,00;0,0561
1601,00;0,0546
1600,00;0,0533
1599,00;0,0520
1598,00;0,0506
1597,00;0,0493
1596,00;0,0481
1595,00;0,0468
1594,00;0,0456
1593,00;0,0444
1592,00;0,0433
1591,00;0,0423
1590,00;0,0414
1589,00;0,0405
1588,00;0,0396
1587,00;0,0388
1586,00;0,0380
1585,00;0,0373
1584,00;0,0366
1583,00;0,0360
1582,00;0,0355
1581,00;0,0350
1580,00;0,0346
1579,00;0,0342
1578,00;0,0339
1577,00;0,0336
1576,00;0,0331
1575,00;0,0327
1574,00;0,0323
1573,00;0,0320
1572,00;0,0317
1571,00;0,0315
1570,00;0,0312
1569,00;0,0311
1568,00;0,0310
1567,00;0,0309
1566,00;0,0307
1565,00;0,0306
1564,00;0,0306
1563,00;0,0306
1562,00;0,0306
1561,00;0,0306
1560,00;0,0305
1559,00;0,0304
1558,00;0,0304
1557,00;0,0304
1556,00;0,0304
1555,00;0,0305
1554,00;0,0305
1553,00;0,0306
1552,00;0,0306
1551,00;0,0306
1550,00;0,0307
1549,00;0,0308
1548,00;0,0308
1547,00;0,0309
1546,00;0,0311
1545,00;0,0312
1544,00;0,0313
1543,00;0,0315
1542,00;0,0316
1541,00;0,0319
1540,00;0,0321
1539,00;0,0324
1538,00;0,0326
1537,00;0,0327
1536,00;0,0327
1535,00;0,0328
1534,00;0,0330
1533,00;0,0332
1532,00;0,0334
1531,00;0,0336
1530,00;0,0338
1529,00;0,0340
1528,00;0,0343
1527,00;0,0345
1526,00;0,0347
1525,00;0,0349
1524,00;0,0351
1523,00;0,0353
1522,00;0,0356
1521,00;0,0358
1520,00;0,0359
1519,00;0,0360
1518,00;0,0361
1517,00;0,0362
1516,00;0,0364
1515,00;0,0366
1514,00;0,0368
1513,00;0,0370
1512,00;0,0372
1511,00;0,0374
1510,00;0,0376
1509,00;0,0379
1508,00;0,0381
1507,00;0,0382
1506,00;0,0382
1505,00;0,0382
1504,00;0,0383
1503,00;0,0383
1502,00;0,0384
1501,00;0,0385
1500,00;0,0386
1499,00;0,0387
1498,00;0,0388
1497,00;0,0389
1496,00;0,0389
1495,00;0,0389
1494,00;0,0389
1493,00;0,0389
1492,00;0,0389
1491,00;0,0390
1490,00;0,0390
1489,00;0,0390
1488,00;0,0389
1487,00;0,0389
1486,00;0,0389
1485,00;0,0388
1484,00;0,0388
1483,00;0,0387
1482,00;0,0386
1481,00;0,0385
1480,00;0,0384
1479,00;0,0383
1478,00;0,0382
1477,00;0,0381
1476,00;0,0380
1475,00;0,0379
1474,00;0,0377
1473,00;0,0375
1472,00;0,0372
1471,00;0,0369
1470,00;0,0366
1469,00;0,0364
1468,00;0,0362
1467,00;0,0360
1466,00;0,0357
1465,00;0,0354
1464,00;0,0352
1463,00;0,0350
1462,00;0,0349
1461,00;0,0348
1460,00;0,0348
1459,00;0,0348
1458,00;0,0347
1457,00;0,0345
1456,00;0,0344
1455,00;0,0342
1454,00;0,0341
1453,00;0,0340
1452,00;0,0340
1451,00;0,0341
1450,00;0,0341
1449,00;0,0342
1448,00;0,0344
1447,00;0,0345
1446,00;0,0346
1445,00;0,0348
1444,00;0,0349
1443,00;0,0351
1442,00;0,0353
1441,00;0,0355
1440,00;0,0357
1439,00;0,0358
1438,00;0,0360
1437,00;0,0363
1436,00;0,0365
1435,00;0,0367
1434,00;0,0368
1433,00;0,0370
1432,00;0,0371
1431,00;0,0373
1430,00;0,0374
1429,00;0,0376
1428,00;0,0377
1427,00;0,0378
1426,00;0,0380
1425,00;0,0381
1424,00;0,0382
1423,00;0,0383
1422,00;0,0384
1421,00;0,0385
1420,00;0,0386
1419,00;0,0387
1418,00;0,0387
1417,00;0,0388
1416,00;0,0388
1415,00;0,0389
1414,00;0,0389
1413,00;0,0389
1412,00;0,0389
1411,00;0,0389
1410,00;0,0388
1409,00;0,0388
1408,00;0,0388
1407,00;0,0388
1406,00;0,0387
1405,00;0,0386
1404,00;0,0385
1403,00;0,0384
1402,00;0,0383
1401,00;0,0383
1400,00;0,0382
1399,00;0,0381
1398,00;0,0380
1397,00;0,0379
1396,00;0,0379
1395,00;0,0377
1394,00;0,0376
1393,00;0,0375
1392,00;0,0373
1391,00;0,0372
1390,00;0,0371
1389,00;0,0370
1388,00;0,0369
1387,00;0,0368
1386,00;0,0365
1385,00;0,0363
1384,00;0,0362
1383,00;0,0360
1382,00;0,0359
1381,00;0,0357
1380,00;0,0355
1379,00;0,0353
1378,00;0,0351
1377,00;0,0349
1376,00;0,0347
1375,00;0,0345
1374,00;0,0343
1373,00;0,0341
1372,00;0,0339
1371,00;0,0338
1370,00;0,0337
1369,00;0,0336
1368,00;0,0335
1367,00;0,0334
1366,00;0,0333
1365,00;0,0333
1364,00;0,0333
1363,00;0,0333
1362,00;0,0332
1361,00;0,0332
1360,00;0,0332
1359,00;0,0331
1358,00;0,0331
1357,00;0,0331
1356,00;0,0331
1355,00;0,0331
1354,00;0,0331
1353,00;0,0331
1352,00;0,0332
1351,00;0,0332
1350,00;0,0334
1349,00;0,0335
1348,00;0,0337
1347,00;0,0340
1346,00;0,0343
1345,00;0,0346
1344,00;0,0350
1343,00;0,0355
1342,00;0,0361
1341,00;0,0368
1340,00;0,0375
1339,00;0,0384
1338,00;0,0392
1337,00;0,0401
1336,00;0,0411
1335,00;0,0422
1334,00;0,0433
1333,00;0,0445
1332,00;0,0457
1331,00;0,0470
1330,00;0,0483
1329,00;0,0496
1328,00;0,0508
1327,00;0,0519
1326,00;0,0529
1325,00;0,0539
1324,00;0,0547
1323,00;0,0554
1322,00;0,0560
1321,00;0,0565
1320,00;0,0566
1319,00;0,0565
1318,00;0,0561
1317,00;0,0554
1316,00;0,0544
1315,00;0,0531
1314,00;0,0515
1313,00;0,0497
1312,00;0,0478
1311,00;0,0457
1310,00;0,0436
1309,00;0,0416
1308,00;0,0395
1307,00;0,0376
1306,00;0,0357
1305,00;0,0339
1304,00;0,0322
1303,00;0,0306
1302,00;0,0291
1301,00;0,0277
1300,00;0,0264
1299,00;0,0252
1298,00;0,0240
1297,00;0,0230
1296,00;0,0221
1295,00;0,0212
1294,00;0,0204
1293,00;0,0196
1292,00;0,0188
1291,00;0,0181
1290,00;0,0175
1289,00;0,0169
1288,00;0,0164
1287,00;0,0159
1286,00;0,0154
1285,00;0,0150
1284,00;0,0146
1283,00;0,0142
1282,00;0,0139
1281,00;0,0136
1280,00;0,0132
1279,00;0,0129
1278,00;0,0126
1277,00;0,0123
1276,00;0,0120
1275,00;0,0118
1274,00;0,0115
1273,00;0,0113
1272,00;0,0111
1271,00;0,0109
1270,00;0,0107
1269,00;0,0105
1268,00;0,0104
1267,00;0,0102
1266,00;0,0101
1265,00;0,0099
1264,00;0,0098
1263,00;0,0096
1262,00;0,0095
1261,00;0,0094
1260,00;0,0093
1259,00;0,0091
1258,00;0,0090
1257,00;0,0090
1256,00;0,0089
1255,00;0,0089
1254,00;0,0088
1253,00;0,0088
1252,00;0,0087
1251,00;0,0087
1250,00;0,0087
1249,00;0,0087
1248,00;0,0086
1247,00;0,0086
1246,00;0,0085
1245,00;0,0085
1244,00;0,0085
1243,00;0,0085
1242,00;0,0084
1241,00;0,0084
1240,00;0,0084
1239,00;0,0084
1238,00;0,0084
1237,00;0,0084
1236,00;0,0084
1235,00;0,0084
1234,00;0,0084
1233,00;0,0083
1232,00;0,0083
1231,00;0,0082
1230,00;0,0082
1229,00;0,0083
1228,00;0,0083
1227,00;0,0083
1226,00;0,0084
1225,00;0,0084
1224,00;0,0084
1223,00;0,0084
1222,00;0,0084
1221,00;0,0084
1220,00;0,0084
1219,00;0,0084
1218,00;0,0084
1217,00;0,0084
1216,00;0,0083
1215,00;0,0083
1214,00;0,0083
1213,00;0,0083
1212,00;0,0083
1211,00;0,0084
1210,00;0,0084
1209,00;0,0084
1208,00;0,0084
1207,00;0,0084
1206,00;0,0083
1205,00;0,0083
1204,00;0,0084
1203,00;0,0084
1202,00;0,0084
1201,00;0,0084
1200,00;0,0084
1199,00;0,0084
1198,00;0,0084
1197,00;0,0084
1196,00;0,0084
1195,00;0,0084
1194,00;0,0084
1193,00;0,0084
1192,00;0,0084
1191,00;0,0084
1190,00;0,0084
1189,00;0,0084
1188,00;0,0084
1187,00;0,0084
1186,00;0,0084
1185,00;0,0084
1184,00;0,0084
1183,00;0,0084
1182,00;0,0084
1181,00;0,0084
1180,00;0,0084
1179,00;0,0085
1178,00;0,0085
1177,00;0,0085
1176,00;0,0085
1175,00;0,0084
1174,00;0,0084
1173,00;0,0084
1172,00;0,0084
1171,00;0,0084
1170,00;0,0085
1169,00;0,0085
1168,00;0,0085
1167,00;0,0084
1166,00;0,0084
1165,00;0,0084
1164,00;0,0085
1163,00;0,0085
1162,00;0,0085
1161,00;0,0086
1160,00;0,0086
1159,00;0,0086
1158,00;0,0086
1157,00;0,0086
1156,00;0,0086
1155,00;0,0086
1154,00;0,0087
1153,00;0,0087
1152,00;0,0087
1151,00;0,0087
1150,00;0,0087
1149,00;0,0088
1148,00;0,0088
1147,00;0,0088
1146,00;0,0089
1145,00;0,0089
1144,00;0,0090
1143,00;0,0090
1142,00;0,0090
1141,00;0,0090
1140,00;0,0091
1139,00;0,0091
1138,00;0,0091
1137,00;0,0091
1136,00;0,0091
1135,00;0,0091
1134,00;0,0091
1133,00;0,0091
1132,00;0,0091
1131,00;0,0092
1130,00;0,0093
1129,00;0,0093
1128,00;0,0094
1127,00;0,0094
1126,00;0,0094
1125,00;0,0094
1124,00;0,0093
1123,00;0,0093
1122,00;0,0093
1121,00;0,0093
1120,00;0,0094
1119,00;0,0094
1118,00;0,0094
1117,00;0,0095
1116,00;0,0095
1115,00;0,0095
1114,00;0,0095
1113,00;0,0096
1112,00;0,0096
1111,00;0,0097
1110,00;0,0097
1109,00;0,0098
1108,00;0,0098
1107,00;0,0099
1106,00;0,0100
1105,00;0,0101
1104,00;0,0102
1103,00;0,0103
1102,00;0,0105
1101,00;0,0106
1100,00;0,0107
1099,00;0,0108
1098,00;0,0109
1097,00;0,0110
1096,00;0,0110
1095,00;0,0111
1094,00;0,0112
1093,00;0,0113
1092,00;0,0114
1091,00;0,0115
1090,00;0,0115
1089,00;0,0116
1088,00;0,0117
1087,00;0,0118
1086,00;0,0119
1085,00;0,0120
1084,00;0,0120
1083,00;0,0121
1082,00;0,0121
1081,00;0,0121
1080,00;0,0121
1079,00;0,0121
1078,00;0,0121
1077,00;0,0122
1076,00;0,0122
1075,00;0,0122
1074,00;0,0122
1073,00;0,0122
1072,00;0,0121
1071,00;0,0121
1070,00;0,0120
1069,00;0,0119
1068,00;0,0118
1067,00;0,0118
1066,00;0,0117
1065,00;0,0116
1064,00;0,0115
1063,00;0,0114
1062,00;0,0113
1061,00;0,0112
1060,00;0,0111
1059,00;0,0110
1058,00;0,0109
1057,00;0,0108
1056,00;0,0107
1055,00;0,0106
1054,00;0,0105
1053,00;0,0105
1052,00;0,0104
1051,00;0,0103
1050,00;0,0102
1049,00;0,0101
1048,00;0,0099
1047,00;0,0097
1046,00;0,0096
1045,00;0,0095
1044,00;0,0094
1043,00;0,0094
1042,00;0,0093
1041,00;0,0092
1040,00;0,0091
1039,00;0,0090
1038,00;0,0090
1037,00;0,0090
1036,00;0,0089
1035,00;0,0089
1034,00;0,0089
1033,00;0,0088
1032,00;0,0087
1031,00;0,0086
1030,00;0,0086
1029,00;0,0086
1028,00;0,0085
1027,00;0,0085
1026,00;0,0085
1025,00;0,0085
1024,00;0,0084
1023,00;0,0084
1022,00;0,0084
1021,00;0,0084
1020,00;0,0083
1019,00;0,0083
1018,00;0,0083
1017,00;0,0083
1016,00;0,0082
1015,00;0,0082
1014,00;0,0082
1013,00;0,0082
1012,00;0,0082
1011,00;0,0082
1010,00;0,0082
1009,00;0,0083
1008,00;0,0083
1007,00;0,0082
1006,00;0,0082
1005,00;0,0081
1004,00;0,0081
1003,00;0,0081
1002,00;0,0082
1001,00;0,0082
1000,00;0,0082
999,00;0,0082
998,00;0,0082
997,00;0,0082
996,00;0,0082
995,00;0,0082
994,00;0,0082
993,00;0,0082
992,00;0,0082
991,00;0,0082
990,00;0,0082
989,00;0,0082
988,00;0,0082
987,00;0,0082
986,00;0,0082
985,00;0,0082
984,00;0,0082
983,00;0,0082
982,00;0,0082
981,00;0,0082
980,00;0,0082
979,00;0,0082
978,00;0,0082
977,00;0,0082
976,00;0,0082
975,00;0,0082
974,00;0,0082
973,00;0,0082
972,00;0,0082
971,00;0,0082
970,00;0,0082
969,00;0,0082
968,00;0,0082
967,00;0,0082
966,00;0,0082
965,00;0,0082
964,00;0,0082
963,00;0,0082
962,00;0,0082
961,00;0,0082
960,00;0,0082
959,00;0,0082
958,00;0,0082
957,00;0,0082
956,00;0,0082
955,00;0,0082
954,00;0,0082
953,00;0,0082
952,00;0,0082
951,00;0,0082
950,00;0,0082
949,00;0,0082
948,00;0,0082
947,00;0,0082
946,00;0,0082
945,00;0,0082
944,00;0,0082
943,00;0,0082
942,00;0,0082
941,00;0,0082
940,00;0,0082
939,00;0,0082
938,00;0,0082
937,00;0,0082
936,00;0,0082
935,00;0,0082
934,00;0,0082
933,00;0,0082
932,00;0,0083
931,00;0,0083
930,00;0,0083
929,00;0,0082
928,00;0,0082
927,00;0,0082
926,00;0,0081
925,00;0,0082
924,00;0,0082
923,00;0,0082
922,00;0,0082
921,00;0,0082
920,00;0,0082
919,00;0,0083
918,00;0,0083
917,00;0,0084
916,00;0,0084
915,00;0,0085
914,00;0,0084
913,00;0,0084
912,00;0,0084
911,00;0,0084
910,00;0,0083
909,00;0,0083
908,00;0,0083
907,00;0,0083
906,00;0,0083
905,00;0,0083
904,00;0,0083
903,00;0,0083
902,00;0,0082
901,00;0,0082
900,00;0,0082
899,00;0,0082
898,00;0,0083
897,00;0,0083
896,00;0,0083
895,00;0,0082
894,00;0,0082
893,00;0,0081
892,00;0,0081
891,00;0,0081
890,00;0,0081
889,00;0,0082
888,00;0,0083
887,00;0,0084
886,00;0,0086
885,00;0,0087
884,00;0,0088
883,00;0,0089
882,00;0,0091
881,00;0,0094
880,00;0,0096
879,00;0,0099
878,00;0,0101
877,00;0,0104
876,00;0,0108
875,00;0,0111
874,00;0,0115
873,00;0,0119
872,00;0,0122
871,00;0,0125
870,00;0,0128
869,00;0,0130
868,00;0,0132
867,00;0,0134
866,00;0,0135
865,00;0,0137
864,00;0,0138
863,00;0,0138
862,00;0,0138
861,00;0,0137
860,00;0,0137
859,00;0,0136
858,00;0,0135
857,00;0,0133
856,00;0,0131
855,00;0,0129
854,00;0,0127
853,00;0,0125
852,00;0,0123
851,00;0,0122
850,00;0,0120
849,00;0,0119
848,00;0,0117
847,00;0,0116
846,00;0,0114
845,00;0,0111
844,00;0,0109
843,00;0,0108
842,00;0,0106
841,00;0,0105
840,00;0,0103
839,00;0,0101
838,00;0,0099
837,00;0,0097
836,00;0,0096
835,00;0,0095
834,00;0,0094
833,00;0,0093
832,00;0,0091
831,00;0,0089
830,00;0,0087
829,00;0,0086
828,00;0,0085
827,00;0,0083
826,00;0,0083
825,00;0,0082
824,00;0,0081
823,00;0,0081
822,00;0,0080
821,00;0,0080
820,00;0,0080
819,00;0,0080
818,00;0,0079
817,00;0,0079
816,00;0,0080
815,00;0,0081
814,00;0,0082
813,00;0,0082
812,00;0,0082
811,00;0,0083
810,00;0,0085
809,00;0,0088
808,00;0,0092
807,00;0,0096
806,00;0,0102
805,00;0,0108
804,00;0,0115
803,00;0,0122
802,00;0,0128
801,00;0,0135
800,00;0,0143
799,00;0,0151
798,00;0,0159
797,00;0,0165
796,00;0,0172
795,00;0,0179
794,00;0,0187
793,00;0,0194
792,00;0,0201
791,00;0,0208
790,00;0,0214
789,00;0,0219
788,00;0,0224
787,00;0,0228
786,00;0,0231
785,00;0,0232
784,00;0,0232
783,00;0,0230
782,00;0,0227
781,00;0,0221
780,00;0,0214
779,00;0,0205
778,00;0,0195
777,00;0,0184
776,00;0,0173
775,00;0,0162
774,00;0,0151
773,00;0,0142
772,00;0,0133
771,00;0,0124
770,00;0,0116
769,00;0,0109
768,00;0,0103
767,00;0,0098
766,00;0,0093
765,00;0,0090
764,00;0,0087
763,00;0,0084
762,00;0,0082
761,00;0,0081
760,00;0,0080
759,00;0,0079
758,00;0,0078
757,00;0,0077
756,00;0,0077
755,00;0,0078
754,00;0,0077
753,00;0,0078
752,00;0,0079
751,00;0,0081
750,00;0,0084
749,00;0,0087
748,00;0,0092
747,00;0,0098
746,00;0,0104
745,00;0,0111
744,00;0,0119
743,00;0,0128
742,00;0,0138
741,00;0,0148
740,00;0,0159
739,00;0,0171
738,00;0,0183
737,00;0,0196
736,00;0,0209
735,00;0,0222
734,00;0,0235
733,00;0,0248
732,00;0,0261
731,00;0,0271
730,00;0,0280
729,00;0,0286
728,00;0,0290
727,00;0,0291
726,00;0,0291
725,00;0,0288
724,00;0,0284
723,00;0,0279
722,00;0,0276
721,00;0,0274
720,00;0,0273
719,00;0,0274
718,00;0,0276
717,00;0,0280
716,00;0,0288
715,00;0,0298
714,00;0,0310
713,00;0,0323
712,00;0,0336
711,00;0,0349
710,00;0,0361
709,00;0,0372
708,00;0,0383
707,00;0,0393
706,00;0,0404
705,00;0,0415
704,00;0,0427
703,00;0,0439
702,00;0,0451
701,00;0,0463
700,00;0,0477
699,00;0,0491
698,00;0,0503
697,00;0,0515
696,00;0,0524
695,00;0,0532
694,00;0,0536
693,00;0,0536
692,00;0,0533
691,00;0,0527
690,00;0,0518
689,00;0,0506
688,00;0,0493
687,00;0,0479
686,00;0,0464
685,00;0,0448
684,00;0,0432
683,00;0,0415
682,00;0,0399
681,00;0,0384
680,00;0,0371
679,00;0,0361
678,00;0,0354
677,00;0,0350
676,00;0,0348
675,00;0,0347
674,00;0,0347
673,00;0,0350
672,00;0,0353
671,00;0,0354
670,00;0,0354
669,00;0,0354
668,00;0,0360
667,00;0,0372
666,00;0,0385
665,00;0,0396
664,00;0,0407
663,00;0,0418
662,00;0,0431
661,00;0,0445
660,00;0,0459
659,00;0,0474
658,00;0,0490
657,00;0,0509
656,00;0,0531
655,00;0,0553
654,00;0,0576
653,00;0,0598
652,00;0,0622
651,00;0,0646
650,00;0,0671
649,00;0,0697
648,00;0,0724
647,00;0,0751
646,00;0,0777
645,00;0,0803
644,00;0,0829
643,00;0,0853
642,00;0,0876
641,00;0,0899
640,00;0,0921
639,00;0,0941
638,00;0,0958
637,00;0,0974
636,00;0,0989
635,00;0,1000
634,00;0,1006
633,00;0,1008
632,00;0,1009
631,00;0,1005
630,00;0,0997
629,00;0,0985
628,00;0,0971
627,00;0,0955
626,00;0,0939
625,00;0,0925
624,00;0,0916
623,00;0,0908
622,00;0,0902
621,00;0,0897
620,00;0,0894
619,00;0,0892
618,00;0,0890
617,00;0,0891
616,00;0,0896
615,00;0,0902
614,00;0,0908
613,00;0,0913
612,00;0,0916
611,00;0,0917
610,00;0,0916
609,00;0,0917
608,00;0,0921
607,00;0,0925
606,00;0,0929
605,00;0,0932
604,00;0,0935
603,00;0,0936
602,00;0,0935
601,00;0,0935
600,00;0,0936
599,00;0,0936
598,00;0,0938
597,00;0,0943
596,00;0,0952
595,00;0,0961
594,00;0,0972
593,00;0,0983
592,00;0,0996
591,00;0,1006
590,00;0,1014
589,00;0,1022
588,00;0,1030
587,00;0,1038
586,00;0,1047
585,00;0,1056
584,00;0,1065
583,00;0,1070
582,00;0,1073
581,00;0,1073
580,00;0,1073
579,00;0,1071
578,00;0,1069
577,00;0,1068
576,00;0,1069
575,00;0,1069
574,00;0,1070
573,00;0,1073
572,00;0,1081
571,00;0,1092
570,00;0,1105
569,00;0,1121
568,00;0,1140
567,00;0,1160
566,00;0,1178
565,00;0,1199
564,00;0,1223
563,00;0,1248
562,00;0,1274
561,00;0,1301
560,00;0,1329
559,00;0,1356
558,00;0,1381
557,00;0,1405
556,00;0,1429
555,00;0,1449
554,00;0,1467
553,00;0,1487
552,00;0,1507
551,00;0,1518
550,00;0,1520
549,00;0,1517
548,00;0,1511
547,00;0,1498
546,00;0,1479
545,00;0,1455
544,00;0,1431
543,00;0,1404
542,00;0,1374
541,00;0,1344
540,00;0,1312
539,00;0,1277
538,00;0,1238
537,00;0,1198
536,00;0,1158
535,00;0,1115
534,00;0,1072
533,00;0,1033
532,00;0,0998
531,00;0,0964
530,00;0,0929
529,00;0,0896
528,00;0,0863
527,00;0,0829
526,00;0,0793
525,00;0,0757
524,00;0,0721
523,00;0,0683
522,00;0,0643
521,00;0,0604
520,00;0,0564
519,00;0,0523
518,00;0,0483
517,00;0,0449
516,00;0,0421
515,00;0,0396
514,00;0,0368
513,00;0,0339
512,00;0,0311
511,00;0,0286
510,00;0,0264
509,00;0,0246
508,00;0,0229
507,00;0,0211
506,00;0,0191
505,00;0,0170
504,00;0,0148
503,00;0,0124
502,00;0,0101
501,00;0,0085
500,00;0,0076
499,00;0,0069
498,00;0,0066
497,00;0,0067
496,00;0,0074
495,00;0,0082
494,00;0,0091
493,00;0,0101
492,00;0,0112
491,00;0,0120
490,00;0,0126
489,00;0,0134
488,00;0,0143
487,00;0,0151
486,00;0,0156
485,00;0,0163
484,00;0,0172
483,00;0,0183
482,00;0,0194
481,00;0,0206
480,00;0,0218
479,00;0,0223
478,00;0,0217
477,00;0,0203
476,00;0,0183
475,00;0,0159
474,00;0,0137
473,00;0,0122
472,00;0,0114
471,00;0,0110
470,00;0,0106
469,00;0,0105
468,00;0,0108
467,00;0,0110
466,00;0,0110
465,00;0,0108
464,00;0,0103
463,00;0,0097
462,00;0,0090
461,00;0,0080
460,00;0,0069
459,00;0,0059
458,00;0,0055
457,00;0,0061
456,00;0,0076
455,00;0,0093
454,00;0,0113
453,00;0,0137
452,00;0,0159
451,00;0,0177
450,00;0,0196
