Создан как новый массив данных;Образец 008 полученный BalashovM Дата пятница, марта 03 2023
cm-1;A
4000,00;0,0108
3999,00;0,0108
3998,00;0,0108
3997,00;0,0108
3996,00;0,0108
3995,00;0,0108
3994,00;0,0108
3993,00;0,0108
3992,00;0,0108
3991,00;0,0108
3990,00;0,0108
3989,00;0,0108
3988,00;0,0108
3987,00;0,0108
3986,00;0,0108
3985,00;0,0108
3984,00;0,0108
3983,00;0,0108
3982,00;0,0108
3981,00;0,0108
3980,00;0,0108
3979,00;0,0108
3978,00;0,0108
3977,00;0,0108
3976,00;0,0108
3975,00;0,0108
3974,00;0,0108
3973,00;0,0108
3972,00;0,0108
3971,00;0,0108
3970,00;0,0108
3969,00;0,0108
3968,00;0,0108
3967,00;0,0108
3966,00;0,0108
3965,00;0,0108
3964,00;0,0108
3963,00;0,0108
3962,00;0,0108
3961,00;0,0108
3960,00;0,0108
3959,00;0,0108
3958,00;0,0108
3957,00;0,0108
3956,00;0,0108
3955,00;0,0108
3954,00;0,0108
3953,00;0,0108
3952,00;0,0108
3951,00;0,0108
3950,00;0,0108
3949,00;0,0108
3948,00;0,0108
3947,00;0,0108
3946,00;0,0109
3945,00;0,0109
3944,00;0,0109
3943,00;0,0109
3942,00;0,0109
3941,00;0,0109
3940,00;0,0109
3939,00;0,0109
3938,00;0,0109
3937,00;0,0109
3936,00;0,0109
3935,00;0,0109
3934,00;0,0109
3933,00;0,0109
3932,00;0,0109
3931,00;0,0109
3930,00;0,0109
3929,00;0,0109
3928,00;0,0109
3927,00;0,0109
3926,00;0,0109
3925,00;0,0109
3924,00;0,0109
3923,00;0,0109
3922,00;0,0109
3921,00;0,0109
3920,00;0,0109
3919,00;0,0108
3918,00;0,0108
3917,00;0,0109
3916,00;0,0109
3915,00;0,0109
3914,00;0,0109
3913,00;0,0109
3912,00;0,0109
3911,00;0,0109
3910,00;0,0109
3909,00;0,0109
3908,00;0,0109
3907,00;0,0109
3906,00;0,0109
3905,00;0,0109
3904,00;0,0109
3903,00;0,0109
3902,00;0,0108
3901,00;0,0108
3900,00;0,0108
3899,00;0,0108
3898,00;0,0108
3897,00;0,0108
3896,00;0,0108
3895,00;0,0108
3894,00;0,0108
3893,00;0,0108
3892,00;0,0108
3891,00;0,0108
3890,00;0,0108
3889,00;0,0108
3888,00;0,0108
3887,00;0,0108
3886,00;0,0108
3885,00;0,0108
3884,00;0,0108
3883,00;0,0108
3882,00;0,0108
3881,00;0,0108
3880,00;0,0108
3879,00;0,0108
3878,00;0,0108
3877,00;0,0108
3876,00;0,0108
3875,00;0,0108
3874,00;0,0108
3873,00;0,0108
3872,00;0,0108
3871,00;0,0108
3870,00;0,0108
3869,00;0,0108
3868,00;0,0108
3867,00;0,0108
3866,00;0,0108
3865,00;0,0108
3864,00;0,0108
3863,00;0,0108
3862,00;0,0108
3861,00;0,0108
3860,00;0,0108
3859,00;0,0108
3858,00;0,0108
3857,00;0,0108
3856,00;0,0108
3855,00;0,0108
3854,00;0,0108
3853,00;0,0108
3852,00;0,0108
3851,00;0,0108
3850,00;0,0108
3849,00;0,0108
3848,00;0,0108
3847,00;0,0108
3846,00;0,0108
3845,00;0,0108
3844,00;0,0108
3843,00;0,0108
3842,00;0,0108
3841,00;0,0108
3840,00;0,0108
3839,00;0,0108
3838,00;0,0108
3837,00;0,0108
3836,00;0,0108
3835,00;0,0108
3834,00;0,0108
3833,00;0,0108
3832,00;0,0108
3831,00;0,0108
3830,00;0,0108
3829,00;0,0108
3828,00;0,0108
3827,00;0,0108
3826,00;0,0108
3825,00;0,0108
3824,00;0,0108
3823,00;0,0108
3822,00;0,0108
3821,00;0,0108
3820,00;0,0108
3819,00;0,0108
3818,00;0,0108
3817,00;0,0108
3816,00;0,0108
3815,00;0,0108
3814,00;0,0108
3813,00;0,0108
3812,00;0,0108
3811,00;0,0108
3810,00;0,0108
3809,00;0,0108
3808,00;0,0108
3807,00;0,0108
3806,00;0,0108
3805,00;0,0108
3804,00;0,0108
3803,00;0,0108
3802,00;0,0108
3801,00;0,0108
3800,00;0,0108
3799,00;0,0108
3798,00;0,0108
3797,00;0,0108
3796,00;0,0108
3795,00;0,0108
3794,00;0,0108
3793,00;0,0108
3792,00;0,0108
3791,00;0,0108
3790,00;0,0109
3789,00;0,0109
3788,00;0,0109
3787,00;0,0109
3786,00;0,0109
3785,00;0,0109
3784,00;0,0109
3783,00;0,0108
3782,00;0,0108
3781,00;0,0108
3780,00;0,0108
3779,00;0,0108
3778,00;0,0108
3777,00;0,0108
3776,00;0,0108
3775,00;0,0108
3774,00;0,0108
3773,00;0,0108
3772,00;0,0108
3771,00;0,0108
3770,00;0,0108
3769,00;0,0108
3768,00;0,0108
3767,00;0,0108
3766,00;0,0108
3765,00;0,0108
3764,00;0,0108
3763,00;0,0108
3762,00;0,0108
3761,00;0,0108
3760,00;0,0108
3759,00;0,0108
3758,00;0,0108
3757,00;0,0108
3756,00;0,0108
3755,00;0,0108
3754,00;0,0108
3753,00;0,0108
3752,00;0,0108
3751,00;0,0108
3750,00;0,0108
3749,00;0,0108
3748,00;0,0108
3747,00;0,0108
3746,00;0,0108
3745,00;0,0108
3744,00;0,0108
3743,00;0,0109
3742,00;0,0109
3741,00;0,0109
3740,00;0,0109
3739,00;0,0109
3738,00;0,0109
3737,00;0,0109
3736,00;0,0108
3735,00;0,0108
3734,00;0,0108
3733,00;0,0108
3732,00;0,0108
3731,00;0,0108
3730,00;0,0108
3729,00;0,0108
3728,00;0,0108
3727,00;0,0108
3726,00;0,0108
3725,00;0,0108
3724,00;0,0108
3723,00;0,0108
3722,00;0,0108
3721,00;0,0108
3720,00;0,0108
3719,00;0,0108
3718,00;0,0108
3717,00;0,0108
3716,00;0,0108
3715,00;0,0108
3714,00;0,0108
3713,00;0,0108
3712,00;0,0108
3711,00;0,0108
3710,00;0,0108
3709,00;0,0108
3708,00;0,0108
3707,00;0,0108
3706,00;0,0108
3705,00;0,0108
3704,00;0,0108
3703,00;0,0108
3702,00;0,0108
3701,00;0,0108
3700,00;0,0108
3699,00;0,0108
3698,00;0,0108
3697,00;0,0108
3696,00;0,0108
3695,00;0,0108
3694,00;0,0108
3693,00;0,0109
3692,00;0,0109
3691,00;0,0108
3690,00;0,0109
3689,00;0,0109
3688,00;0,0109
3687,00;0,0109
3686,00;0,0109
3685,00;0,0109
3684,00;0,0109
3683,00;0,0109
3682,00;0,0109
3681,00;0,0109
3680,00;0,0109
3679,00;0,0109
3678,00;0,0109
3677,00;0,0108
3676,00;0,0108
3675,00;0,0108
3674,00;0,0108
3673,00;0,0108
3672,00;0,0109
3671,00;0,0109
3670,00;0,0109
3669,00;0,0109
3668,00;0,0109
3667,00;0,0109
3666,00;0,0110
3665,00;0,0110
3664,00;0,0111
3663,00;0,0111
3662,00;0,0111
3661,00;0,0112
3660,00;0,0112
3659,00;0,0112
3658,00;0,0112
3657,00;0,0112
3656,00;0,0112
3655,00;0,0112
3654,00;0,0112
3653,00;0,0111
3652,00;0,0111
3651,00;0,0112
3650,00;0,0112
3649,00;0,0113
3648,00;0,0113
3647,00;0,0113
3646,00;0,0114
3645,00;0,0114
3644,00;0,0115
3643,00;0,0115
3642,00;0,0116
3641,00;0,0116
3640,00;0,0117
3639,00;0,0117
3638,00;0,0118
3637,00;0,0118
3636,00;0,0118
3635,00;0,0118
3634,00;0,0119
3633,00;0,0119
3632,00;0,0119
3631,00;0,0119
3630,00;0,0119
3629,00;0,0120
3628,00;0,0121
3627,00;0,0121
3626,00;0,0122
3625,00;0,0122
3624,00;0,0123
3623,00;0,0123
3622,00;0,0123
3621,00;0,0123
3620,00;0,0124
3619,00;0,0124
3618,00;0,0125
3617,00;0,0125
3616,00;0,0126
3615,00;0,0126
3614,00;0,0126
3613,00;0,0127
3612,00;0,0128
3611,00;0,0128
3610,00;0,0129
3609,00;0,0129
3608,00;0,0129
3607,00;0,0130
3606,00;0,0130
3605,00;0,0130
3604,00;0,0131
3603,00;0,0132
3602,00;0,0132
3601,00;0,0133
3600,00;0,0134
3599,00;0,0134
3598,00;0,0135
3597,00;0,0135
3596,00;0,0136
3595,00;0,0136
3594,00;0,0137
3593,00;0,0137
3592,00;0,0138
3591,00;0,0138
3590,00;0,0139
3589,00;0,0139
3588,00;0,0139
3587,00;0,0140
3586,00;0,0140
3585,00;0,0140
3584,00;0,0141
3583,00;0,0142
3582,00;0,0142
3581,00;0,0143
3580,00;0,0143
3579,00;0,0143
3578,00;0,0144
3577,00;0,0144
3576,00;0,0145
3575,00;0,0145
3574,00;0,0146
3573,00;0,0146
3572,00;0,0146
3571,00;0,0147
3570,00;0,0147
3569,00;0,0148
3568,00;0,0148
3567,00;0,0148
3566,00;0,0149
3565,00;0,0149
3564,00;0,0150
3563,00;0,0150
3562,00;0,0151
3561,00;0,0152
3560,00;0,0152
3559,00;0,0153
3558,00;0,0153
3557,00;0,0154
3556,00;0,0154
3555,00;0,0155
3554,00;0,0155
3553,00;0,0155
3552,00;0,0156
3551,00;0,0157
3550,00;0,0157
3549,00;0,0157
3548,00;0,0158
3547,00;0,0158
3546,00;0,0159
3545,00;0,0159
3544,00;0,0160
3543,00;0,0160
3542,00;0,0161
3541,00;0,0161
3540,00;0,0161
3539,00;0,0162
3538,00;0,0162
3537,00;0,0162
3536,00;0,0163
3535,00;0,0163
3534,00;0,0164
3533,00;0,0164
3532,00;0,0165
3531,00;0,0165
3530,00;0,0166
3529,00;0,0166
3528,00;0,0167
3527,00;0,0167
3526,00;0,0168
3525,00;0,0168
3524,00;0,0168
3523,00;0,0169
3522,00;0,0169
3521,00;0,0170
3520,00;0,0170
3519,00;0,0170
3518,00;0,0171
3517,00;0,0171
3516,00;0,0172
3515,00;0,0172
3514,00;0,0172
3513,00;0,0173
3512,00;0,0173
3511,00;0,0174
3510,00;0,0174
3509,00;0,0174
3508,00;0,0174
3507,00;0,0175
3506,00;0,0175
3505,00;0,0176
3504,00;0,0176
3503,00;0,0176
3502,00;0,0177
3501,00;0,0177
3500,00;0,0177
3499,00;0,0178
3498,00;0,0178
3497,00;0,0179
3496,00;0,0179
3495,00;0,0179
3494,00;0,0180
3493,00;0,0180
3492,00;0,0180
3491,00;0,0181
3490,00;0,0181
3489,00;0,0181
3488,00;0,0182
3487,00;0,0182
3486,00;0,0182
3485,00;0,0183
3484,00;0,0183
3483,00;0,0184
3482,00;0,0184
3481,00;0,0184
3480,00;0,0185
3479,00;0,0185
3478,00;0,0185
3477,00;0,0186
3476,00;0,0186
3475,00;0,0186
3474,00;0,0187
3473,00;0,0187
3472,00;0,0187
3471,00;0,0188
3470,00;0,0188
3469,00;0,0188
3468,00;0,0189
3467,00;0,0189
3466,00;0,0189
3465,00;0,0190
3464,00;0,0190
3463,00;0,0190
3462,00;0,0191
3461,00;0,0191
3460,00;0,0191
3459,00;0,0192
3458,00;0,0192
3457,00;0,0192
3456,00;0,0193
3455,00;0,0193
3454,00;0,0193
3453,00;0,0193
3452,00;0,0194
3451,00;0,0194
3450,00;0,0194
3449,00;0,0195
3448,00;0,0195
3447,00;0,0195
3446,00;0,0196
3445,00;0,0196
3444,00;0,0196
3443,00;0,0196
3442,00;0,0196
3441,00;0,0197
3440,00;0,0197
3439,00;0,0197
3438,00;0,0197
3437,00;0,0198
3436,00;0,0198
3435,00;0,0198
3434,00;0,0198
3433,00;0,0199
3432,00;0,0199
3431,00;0,0199
3430,00;0,0199
3429,00;0,0200
3428,00;0,0200
3427,00;0,0200
3426,00;0,0201
3425,00;0,0201
3424,00;0,0201
3423,00;0,0201
3422,00;0,0201
3421,00;0,0202
3420,00;0,0202
3419,00;0,0202
3418,00;0,0202
3417,00;0,0203
3416,00;0,0203
3415,00;0,0203
3414,00;0,0203
3413,00;0,0203
3412,00;0,0203
3411,00;0,0204
3410,00;0,0204
3409,00;0,0204
3408,00;0,0204
3407,00;0,0204
3406,00;0,0205
3405,00;0,0205
3404,00;0,0205
3403,00;0,0205
3402,00;0,0205
3401,00;0,0205
3400,00;0,0205
3399,00;0,0205
3398,00;0,0206
3397,00;0,0206
3396,00;0,0206
3395,00;0,0206
3394,00;0,0206
3393,00;0,0206
3392,00;0,0206
3391,00;0,0206
3390,00;0,0207
3389,00;0,0207
3388,00;0,0207
3387,00;0,0208
3386,00;0,0208
3385,00;0,0208
3384,00;0,0208
3383,00;0,0208
3382,00;0,0208
3381,00;0,0208
3380,00;0,0208
3379,00;0,0208
3378,00;0,0208
3377,00;0,0208
3376,00;0,0208
3375,00;0,0208
3374,00;0,0208
3373,00;0,0208
3372,00;0,0208
3371,00;0,0208
3370,00;0,0208
3369,00;0,0208
3368,00;0,0208
3367,00;0,0208
3366,00;0,0209
3365,00;0,0209
3364,00;0,0209
3363,00;0,0209
3362,00;0,0209
3361,00;0,0209
3360,00;0,0209
3359,00;0,0209
3358,00;0,0209
3357,00;0,0210
3356,00;0,0210
3355,00;0,0210
3354,00;0,0210
3353,00;0,0210
3352,00;0,0210
3351,00;0,0209
3350,00;0,0210
3349,00;0,0210
3348,00;0,0210
3347,00;0,0210
3346,00;0,0210
3345,00;0,0210
3344,00;0,0210
3343,00;0,0210
3342,00;0,0210
3341,00;0,0210
3340,00;0,0210
3339,00;0,0210
3338,00;0,0210
3337,00;0,0210
3336,00;0,0210
3335,00;0,0210
3334,00;0,0210
3333,00;0,0210
3332,00;0,0210
3331,00;0,0210
3330,00;0,0210
3329,00;0,0210
3328,00;0,0209
3327,00;0,0209
3326,00;0,0209
3325,00;0,0209
3324,00;0,0209
3323,00;0,0210
3322,00;0,0210
3321,00;0,0210
3320,00;0,0210
3319,00;0,0210
3318,00;0,0210
3317,00;0,0210
3316,00;0,0210
3315,00;0,0209
3314,00;0,0209
3313,00;0,0209
3312,00;0,0209
3311,00;0,0209
3310,00;0,0208
3309,00;0,0207
3308,00;0,0207
3307,00;0,0207
3306,00;0,0207
3305,00;0,0207
3304,00;0,0208
3303,00;0,0208
3302,00;0,0208
3301,00;0,0208
3300,00;0,0208
3299,00;0,0208
3298,00;0,0208
3297,00;0,0207
3296,00;0,0207
3295,00;0,0207
3294,00;0,0207
3293,00;0,0207
3292,00;0,0207
3291,00;0,0207
3290,00;0,0208
3289,00;0,0208
3288,00;0,0208
3287,00;0,0208
3286,00;0,0208
3285,00;0,0208
3284,00;0,0208
3283,00;0,0208
3282,00;0,0208
3281,00;0,0208
3280,00;0,0208
3279,00;0,0208
3278,00;0,0208
3277,00;0,0208
3276,00;0,0208
3275,00;0,0207
3274,00;0,0207
3273,00;0,0206
3272,00;0,0206
3271,00;0,0206
3270,00;0,0206
3269,00;0,0206
3268,00;0,0207
3267,00;0,0207
3266,00;0,0207
3265,00;0,0207
3264,00;0,0207
3263,00;0,0207
3262,00;0,0207
3261,00;0,0207
3260,00;0,0207
3259,00;0,0207
3258,00;0,0206
3257,00;0,0206
3256,00;0,0206
3255,00;0,0206
3254,00;0,0206
3253,00;0,0206
3252,00;0,0206
3251,00;0,0206
3250,00;0,0206
3249,00;0,0205
3248,00;0,0205
3247,00;0,0205
3246,00;0,0205
3245,00;0,0205
3244,00;0,0205
3243,00;0,0205
3242,00;0,0205
3241,00;0,0205
3240,00;0,0205
3239,00;0,0205
3238,00;0,0205
3237,00;0,0205
3236,00;0,0204
3235,00;0,0204
3234,00;0,0204
3233,00;0,0204
3232,00;0,0204
3231,00;0,0204
3230,00;0,0204
3229,00;0,0204
3228,00;0,0204
3227,00;0,0204
3226,00;0,0204
3225,00;0,0204
3224,00;0,0204
3223,00;0,0203
3222,00;0,0203
3221,00;0,0203
3220,00;0,0203
3219,00;0,0203
3218,00;0,0203
3217,00;0,0203
3216,00;0,0203
3215,00;0,0203
3214,00;0,0202
3213,00;0,0202
3212,00;0,0202
3211,00;0,0202
3210,00;0,0202
3209,00;0,0201
3208,00;0,0201
3207,00;0,0201
3206,00;0,0201
3205,00;0,0201
3204,00;0,0201
3203,00;0,0200
3202,00;0,0200
3201,00;0,0200
3200,00;0,0200
3199,00;0,0200
3198,00;0,0199
3197,00;0,0199
3196,00;0,0199
3195,00;0,0199
3194,00;0,0199
3193,00;0,0199
3192,00;0,0199
3191,00;0,0199
3190,00;0,0199
3189,00;0,0199
3188,00;0,0198
3187,00;0,0198
3186,00;0,0198
3185,00;0,0198
3184,00;0,0198
3183,00;0,0197
3182,00;0,0197
3181,00;0,0197
3180,00;0,0197
3179,00;0,0197
3178,00;0,0197
3177,00;0,0196
3176,00;0,0196
3175,00;0,0196
3174,00;0,0196
3173,00;0,0196
3172,00;0,0195
3171,00;0,0195
3170,00;0,0195
3169,00;0,0195
3168,00;0,0194
3167,00;0,0194
3166,00;0,0194
3165,00;0,0194
3164,00;0,0194
3163,00;0,0194
3162,00;0,0194
3161,00;0,0193
3160,00;0,0193
3159,00;0,0193
3158,00;0,0193
3157,00;0,0192
3156,00;0,0192
3155,00;0,0192
3154,00;0,0191
3153,00;0,0191
3152,00;0,0191
3151,00;0,0191
3150,00;0,0191
3149,00;0,0191
3148,00;0,0191
3147,00;0,0191
3146,00;0,0190
3145,00;0,0190
3144,00;0,0190
3143,00;0,0190
3142,00;0,0190
3141,00;0,0189
3140,00;0,0189
3139,00;0,0189
3138,00;0,0189
3137,00;0,0189
3136,00;0,0189
3135,00;0,0188
3134,00;0,0188
3133,00;0,0188
3132,00;0,0188
3131,00;0,0188
3130,00;0,0188
3129,00;0,0187
3128,00;0,0187
3127,00;0,0187
3126,00;0,0187
3125,00;0,0187
3124,00;0,0187
3123,00;0,0186
3122,00;0,0186
3121,00;0,0185
3120,00;0,0185
3119,00;0,0185
3118,00;0,0185
3117,00;0,0185
3116,00;0,0185
3115,00;0,0185
3114,00;0,0185
3113,00;0,0185
3112,00;0,0185
3111,00;0,0185
3110,00;0,0184
3109,00;0,0184
3108,00;0,0184
3107,00;0,0183
3106,00;0,0183
3105,00;0,0183
3104,00;0,0183
3103,00;0,0182
3102,00;0,0182
3101,00;0,0182
3100,00;0,0182
3099,00;0,0182
3098,00;0,0182
3097,00;0,0182
3096,00;0,0182
3095,00;0,0181
3094,00;0,0181
3093,00;0,0181
3092,00;0,0181
3091,00;0,0180
3090,00;0,0180
3089,00;0,0180
3088,00;0,0180
3087,00;0,0179
3086,00;0,0179
3085,00;0,0179
3084,00;0,0179
3083,00;0,0178
3082,00;0,0178
3081,00;0,0178
3080,00;0,0178
3079,00;0,0178
3078,00;0,0178
3077,00;0,0178
3076,00;0,0178
3075,00;0,0177
3074,00;0,0177
3073,00;0,0177
3072,00;0,0177
3071,00;0,0177
3070,00;0,0177
3069,00;0,0176
3068,00;0,0176
3067,00;0,0176
3066,00;0,0176
3065,00;0,0176
3064,00;0,0176
3063,00;0,0175
3062,00;0,0175
3061,00;0,0175
3060,00;0,0175
3059,00;0,0175
3058,00;0,0174
3057,00;0,0174
3056,00;0,0174
3055,00;0,0174
3054,00;0,0174
3053,00;0,0174
3052,00;0,0173
3051,00;0,0173
3050,00;0,0173
3049,00;0,0173
3048,00;0,0173
3047,00;0,0172
3046,00;0,0172
3045,00;0,0172
3044,00;0,0172
3043,00;0,0172
3042,00;0,0172
3041,00;0,0172
3040,00;0,0171
3039,00;0,0171
3038,00;0,0171
3037,00;0,0171
3036,00;0,0171
3035,00;0,0171
3034,00;0,0171
3033,00;0,0171
3032,00;0,0170
3031,00;0,0170
3030,00;0,0170
3029,00;0,0170
3028,00;0,0170
3027,00;0,0170
3026,00;0,0170
3025,00;0,0170
3024,00;0,0170
3023,00;0,0169
3022,00;0,0169
3021,00;0,0169
3020,00;0,0168
3019,00;0,0168
3018,00;0,0168
3017,00;0,0168
3016,00;0,0167
3015,00;0,0167
3014,00;0,0167
3013,00;0,0167
3012,00;0,0167
3011,00;0,0167
3010,00;0,0167
3009,00;0,0167
3008,00;0,0167
3007,00;0,0167
3006,00;0,0167
3005,00;0,0167
3004,00;0,0167
3003,00;0,0167
3002,00;0,0167
3001,00;0,0167
3000,00;0,0167
2999,00;0,0167
2998,00;0,0167
2997,00;0,0167
2996,00;0,0167
2995,00;0,0167
2994,00;0,0167
2993,00;0,0166
2992,00;0,0166
2991,00;0,0166
2990,00;0,0166
2989,00;0,0166
2988,00;0,0166
2987,00;0,0166
2986,00;0,0166
2985,00;0,0166
2984,00;0,0166
2983,00;0,0166
2982,00;0,0166
2981,00;0,0166
2980,00;0,0166
2979,00;0,0165
2978,00;0,0165
2977,00;0,0165
2976,00;0,0165
2975,00;0,0165
2974,00;0,0165
2973,00;0,0165
2972,00;0,0164
2971,00;0,0164
2970,00;0,0163
2969,00;0,0163
2968,00;0,0162
2967,00;0,0162
2966,00;0,0161
2965,00;0,0161
2964,00;0,0160
2963,00;0,0160
2962,00;0,0159
2961,00;0,0159
2960,00;0,0159
2959,00;0,0159
2958,00;0,0159
2957,00;0,0159
2956,00;0,0159
2955,00;0,0159
2954,00;0,0158
2953,00;0,0158
2952,00;0,0158
2951,00;0,0157
2950,00;0,0157
2949,00;0,0157
2948,00;0,0157
2947,00;0,0156
2946,00;0,0156
2945,00;0,0156
2944,00;0,0155
2943,00;0,0155
2942,00;0,0154
2941,00;0,0154
2940,00;0,0153
2939,00;0,0153
2938,00;0,0152
2937,00;0,0151
2936,00;0,0150
2935,00;0,0149
2934,00;0,0148
2933,00;0,0147
2932,00;0,0146
2931,00;0,0145
2930,00;0,0144
2929,00;0,0144
2928,00;0,0143
2927,00;0,0143
2926,00;0,0142
2925,00;0,0142
2924,00;0,0141
2923,00;0,0141
2922,00;0,0141
2921,00;0,0142
2920,00;0,0142
2919,00;0,0143
2918,00;0,0143
2917,00;0,0143
2916,00;0,0144
2915,00;0,0144
2914,00;0,0145
2913,00;0,0146
2912,00;0,0146
2911,00;0,0147
2910,00;0,0147
2909,00;0,0148
2908,00;0,0148
2907,00;0,0149
2906,00;0,0149
2905,00;0,0149
2904,00;0,0150
2903,00;0,0150
2902,00;0,0150
2901,00;0,0150
2900,00;0,0150
2899,00;0,0150
2898,00;0,0150
2897,00;0,0150
2896,00;0,0150
2895,00;0,0150
2894,00;0,0150
2893,00;0,0150
2892,00;0,0150
2891,00;0,0151
2890,00;0,0151
2889,00;0,0151
2888,00;0,0151
2887,00;0,0151
2886,00;0,0151
2885,00;0,0150
2884,00;0,0150
2883,00;0,0150
2882,00;0,0149
2881,00;0,0149
2880,00;0,0149
2879,00;0,0149
2878,00;0,0149
2877,00;0,0149
2876,00;0,0148
2875,00;0,0148
2874,00;0,0147
2873,00;0,0147
2872,00;0,0147
2871,00;0,0147
2870,00;0,0147
2869,00;0,0147
2868,00;0,0146
2867,00;0,0146
2866,00;0,0145
2865,00;0,0145
2864,00;0,0145
2863,00;0,0144
2862,00;0,0144
2861,00;0,0143
2860,00;0,0142
2859,00;0,0141
2858,00;0,0141
2857,00;0,0140
2856,00;0,0139
2855,00;0,0139
2854,00;0,0139
2853,00;0,0138
2852,00;0,0138
2851,00;0,0138
2850,00;0,0139
2849,00;0,0140
2848,00;0,0141
2847,00;0,0142
2846,00;0,0143
2845,00;0,0143
2844,00;0,0144
2843,00;0,0144
2842,00;0,0145
2841,00;0,0145
2840,00;0,0146
2839,00;0,0146
2838,00;0,0146
2837,00;0,0146
2836,00;0,0145
2835,00;0,0146
2834,00;0,0146
2833,00;0,0146
2832,00;0,0146
2831,00;0,0146
2830,00;0,0146
2829,00;0,0146
2828,00;0,0146
2827,00;0,0146
2826,00;0,0146
2825,00;0,0146
2824,00;0,0147
2823,00;0,0147
2822,00;0,0147
2821,00;0,0146
2820,00;0,0146
2819,00;0,0146
2818,00;0,0146
2817,00;0,0146
2816,00;0,0146
2815,00;0,0146
2814,00;0,0145
2813,00;0,0145
2812,00;0,0145
2811,00;0,0145
2810,00;0,0145
2809,00;0,0145
2808,00;0,0145
2807,00;0,0145
2806,00;0,0145
2805,00;0,0145
2804,00;0,0145
2803,00;0,0145
2802,00;0,0145
2801,00;0,0145
2800,00;0,0145
2799,00;0,0144
2798,00;0,0144
2797,00;0,0144
2796,00;0,0144
2795,00;0,0144
2794,00;0,0144
2793,00;0,0144
2792,00;0,0144
2791,00;0,0144
2790,00;0,0144
2789,00;0,0143
2788,00;0,0143
2787,00;0,0143
2786,00;0,0143
2785,00;0,0143
2784,00;0,0143
2783,00;0,0143
2782,00;0,0143
2781,00;0,0143
2780,00;0,0143
2779,00;0,0143
2778,00;0,0143
2777,00;0,0143
2776,00;0,0142
2775,00;0,0142
2774,00;0,0142
2773,00;0,0142
2772,00;0,0142
2771,00;0,0142
2770,00;0,0142
2769,00;0,0142
2768,00;0,0142
2767,00;0,0142
2766,00;0,0142
2765,00;0,0141
2764,00;0,0141
2763,00;0,0141
2762,00;0,0141
2761,00;0,0141
2760,00;0,0141
2759,00;0,0141
2758,00;0,0141
2757,00;0,0141
2756,00;0,0141
2755,00;0,0141
2754,00;0,0141
2753,00;0,0141
2752,00;0,0140
2751,00;0,0140
2750,00;0,0140
2749,00;0,0140
2748,00;0,0140
2747,00;0,0140
2746,00;0,0140
2745,00;0,0140
2744,00;0,0140
2743,00;0,0140
2742,00;0,0140
2741,00;0,0140
2740,00;0,0140
2739,00;0,0139
2738,00;0,0139
2737,00;0,0139
2736,00;0,0139
2735,00;0,0139
2734,00;0,0139
2733,00;0,0139
2732,00;0,0139
2731,00;0,0139
2730,00;0,0139
2729,00;0,0139
2728,00;0,0139
2727,00;0,0139
2726,00;0,0139
2725,00;0,0138
2724,00;0,0138
2723,00;0,0138
2722,00;0,0138
2721,00;0,0138
2720,00;0,0138
2719,00;0,0138
2718,00;0,0138
2717,00;0,0138
2716,00;0,0138
2715,00;0,0138
2714,00;0,0138
2713,00;0,0138
2712,00;0,0138
2711,00;0,0138
2710,00;0,0138
2709,00;0,0137
2708,00;0,0137
2707,00;0,0137
2706,00;0,0137
2705,00;0,0137
2704,00;0,0137
2703,00;0,0137
2702,00;0,0137
2701,00;0,0137
2700,00;0,0137
2699,00;0,0137
2698,00;0,0137
2697,00;0,0137
2696,00;0,0137
2695,00;0,0137
2694,00;0,0136
2693,00;0,0136
2692,00;0,0136
2691,00;0,0136
2690,00;0,0136
2689,00;0,0136
2688,00;0,0136
2687,00;0,0136
2686,00;0,0136
2685,00;0,0136
2684,00;0,0136
2683,00;0,0136
2682,00;0,0137
2681,00;0,0136
2680,00;0,0136
2679,00;0,0136
2678,00;0,0136
2677,00;0,0136
2676,00;0,0136
2675,00;0,0136
2674,00;0,0136
2673,00;0,0136
2672,00;0,0136
2671,00;0,0136
2670,00;0,0136
2669,00;0,0136
2668,00;0,0136
2667,00;0,0136
2666,00;0,0136
2665,00;0,0136
2664,00;0,0137
2663,00;0,0137
2662,00;0,0137
2661,00;0,0137
2660,00;0,0138
2659,00;0,0138
2658,00;0,0137
2657,00;0,0137
2656,00;0,0137
2655,00;0,0138
2654,00;0,0138
2653,00;0,0138
2652,00;0,0138
2651,00;0,0138
2650,00;0,0138
2649,00;0,0138
2648,00;0,0138
2647,00;0,0137
2646,00;0,0137
2645,00;0,0137
2644,00;0,0137
2643,00;0,0138
2642,00;0,0138
2641,00;0,0137
2640,00;0,0137
2639,00;0,0137
2638,00;0,0137
2637,00;0,0137
2636,00;0,0137
2635,00;0,0137
2634,00;0,0137
2633,00;0,0136
2632,00;0,0136
2631,00;0,0136
2630,00;0,0136
2629,00;0,0136
2628,00;0,0136
2627,00;0,0136
2626,00;0,0136
2625,00;0,0136
2624,00;0,0136
2623,00;0,0135
2622,00;0,0135
2621,00;0,0135
2620,00;0,0135
2619,00;0,0135
2618,00;0,0135
2617,00;0,0135
2616,00;0,0135
2615,00;0,0135
2614,00;0,0135
2613,00;0,0134
2612,00;0,0134
2611,00;0,0134
2610,00;0,0134
2609,00;0,0134
2608,00;0,0134
2607,00;0,0134
2606,00;0,0134
2605,00;0,0134
2604,00;0,0133
2603,00;0,0133
2602,00;0,0133
2601,00;0,0133
2600,00;0,0133
2599,00;0,0133
2598,00;0,0133
2597,00;0,0133
2596,00;0,0132
2595,00;0,0132
2594,00;0,0132
2593,00;0,0132
2592,00;0,0132
2591,00;0,0132
2590,00;0,0132
2589,00;0,0132
2588,00;0,0131
2587,00;0,0131
2586,00;0,0131
2585,00;0,0131
2584,00;0,0131
2583,00;0,0131
2582,00;0,0131
2581,00;0,0131
2580,00;0,0131
2579,00;0,0131
2578,00;0,0130
2577,00;0,0130
2576,00;0,0130
2575,00;0,0130
2574,00;0,0130
2573,00;0,0130
2572,00;0,0130
2571,00;0,0130
2570,00;0,0130
2569,00;0,0129
2568,00;0,0129
2567,00;0,0129
2566,00;0,0129
2565,00;0,0129
2564,00;0,0129
2563,00;0,0129
2562,00;0,0129
2561,00;0,0129
2560,00;0,0129
2559,00;0,0129
2558,00;0,0129
2557,00;0,0128
2556,00;0,0128
2555,00;0,0128
2554,00;0,0128
2553,00;0,0128
2552,00;0,0128
2551,00;0,0128
2550,00;0,0128
2549,00;0,0128
2548,00;0,0128
2547,00;0,0128
2546,00;0,0128
2545,00;0,0128
2544,00;0,0127
2543,00;0,0127
2542,00;0,0127
2541,00;0,0127
2540,00;0,0127
2539,00;0,0127
2538,00;0,0127
2537,00;0,0127
2536,00;0,0127
2535,00;0,0127
2534,00;0,0127
2533,00;0,0127
2532,00;0,0127
2531,00;0,0126
2530,00;0,0126
2529,00;0,0126
2528,00;0,0126
2527,00;0,0126
2526,00;0,0126
2525,00;0,0126
2524,00;0,0126
2523,00;0,0126
2522,00;0,0126
2521,00;0,0126
2520,00;0,0126
2519,00;0,0126
2518,00;0,0125
2517,00;0,0125
2516,00;0,0125
2515,00;0,0125
2514,00;0,0125
2513,00;0,0125
2512,00;0,0125
2511,00;0,0125
2510,00;0,0125
2509,00;0,0125
2508,00;0,0125
2507,00;0,0125
2506,00;0,0125
2505,00;0,0125
2504,00;0,0125
2503,00;0,0125
2502,00;0,0124
2501,00;0,0124
2500,00;0,0124
2499,00;0,0124
2498,00;0,0124
2497,00;0,0124
2496,00;0,0124
2495,00;0,0124
2494,00;0,0124
2493,00;0,0124
2492,00;0,0124
2491,00;0,0124
2490,00;0,0124
2489,00;0,0124
2488,00;0,0124
2487,00;0,0124
2486,00;0,0124
2485,00;0,0124
2484,00;0,0124
2483,00;0,0124
2482,00;0,0124
2481,00;0,0124
2480,00;0,0124
2479,00;0,0124
2478,00;0,0124
2477,00;0,0124
2476,00;0,0124
2475,00;0,0124
2474,00;0,0123
2473,00;0,0123
2472,00;0,0123
2471,00;0,0123
2470,00;0,0123
2469,00;0,0123
2468,00;0,0123
2467,00;0,0123
2466,00;0,0123
2465,00;0,0124
2464,00;0,0124
2463,00;0,0124
2462,00;0,0124
2461,00;0,0124
2460,00;0,0124
2459,00;0,0124
2458,00;0,0124
2457,00;0,0124
2456,00;0,0124
2455,00;0,0124
2454,00;0,0125
2453,00;0,0125
2452,00;0,0125
2451,00;0,0125
2450,00;0,0125
2449,00;0,0125
2448,00;0,0124
2447,00;0,0124
2446,00;0,0124
2445,00;0,0124
2444,00;0,0123
2443,00;0,0123
2442,00;0,0124
2441,00;0,0124
2440,00;0,0124
2439,00;0,0124
2438,00;0,0123
2437,00;0,0123
2436,00;0,0123
2435,00;0,0123
2434,00;0,0123
2433,00;0,0123
2432,00;0,0123
2431,00;0,0124
2430,00;0,0124
2429,00;0,0124
2428,00;0,0124
2427,00;0,0124
2426,00;0,0123
2425,00;0,0123
2424,00;0,0123
2423,00;0,0123
2422,00;0,0123
2421,00;0,0122
2420,00;0,0122
2419,00;0,0121
2418,00;0,0121
2417,00;0,0121
2416,00;0,0122
2415,00;0,0122
2414,00;0,0123
2413,00;0,0123
2412,00;0,0123
2411,00;0,0123
2410,00;0,0123
2409,00;0,0122
2408,00;0,0122
2407,00;0,0122
2406,00;0,0122
2405,00;0,0122
2404,00;0,0122
2403,00;0,0122
2402,00;0,0121
2401,00;0,0122
2400,00;0,0122
2399,00;0,0123
2398,00;0,0123
2397,00;0,0124
2396,00;0,0124
2395,00;0,0124
2394,00;0,0123
2393,00;0,0123
2392,00;0,0123
2391,00;0,0124
2390,00;0,0124
2389,00;0,0125
2388,00;0,0126
2387,00;0,0127
2386,00;0,0128
2385,00;0,0130
2384,00;0,0131
2383,00;0,0132
2382,00;0,0132
2381,00;0,0133
2380,00;0,0133
2379,00;0,0132
2378,00;0,0132
2377,00;0,0133
2376,00;0,0134
2375,00;0,0135
2374,00;0,0137
2373,00;0,0138
2372,00;0,0140
2371,00;0,0141
2370,00;0,0142
2369,00;0,0142
2368,00;0,0143
2367,00;0,0143
2366,00;0,0144
2365,00;0,0144
2364,00;0,0145
2363,00;0,0147
2362,00;0,0148
2361,00;0,0151
2360,00;0,0152
2359,00;0,0153
2358,00;0,0153
2357,00;0,0152
2356,00;0,0152
2355,00;0,0153
2354,00;0,0153
2353,00;0,0153
2352,00;0,0154
2351,00;0,0155
2350,00;0,0157
2349,00;0,0159
2348,00;0,0162
2347,00;0,0164
2346,00;0,0167
2345,00;0,0170
2344,00;0,0171
2343,00;0,0172
2342,00;0,0172
2341,00;0,0172
2340,00;0,0172
2339,00;0,0172
2338,00;0,0172
2337,00;0,0170
2336,00;0,0168
2335,00;0,0164
2334,00;0,0161
2333,00;0,0159
2332,00;0,0157
2331,00;0,0156
2330,00;0,0156
2329,00;0,0157
2328,00;0,0158
2327,00;0,0158
2326,00;0,0159
2325,00;0,0160
2324,00;0,0159
2323,00;0,0158
2322,00;0,0155
2321,00;0,0154
2320,00;0,0153
2319,00;0,0153
2318,00;0,0152
2317,00;0,0151
2316,00;0,0150
2315,00;0,0149
2314,00;0,0149
2313,00;0,0148
2312,00;0,0148
2311,00;0,0148
2310,00;0,0147
2309,00;0,0146
2308,00;0,0146
2307,00;0,0145
2306,00;0,0144
2305,00;0,0143
2304,00;0,0142
2303,00;0,0141
2302,00;0,0141
2301,00;0,0141
2300,00;0,0140
2299,00;0,0140
2298,00;0,0139
2297,00;0,0139
2296,00;0,0138
2295,00;0,0137
2294,00;0,0137
2293,00;0,0136
2292,00;0,0136
2291,00;0,0136
2290,00;0,0136
2289,00;0,0135
2288,00;0,0135
2287,00;0,0135
2286,00;0,0135
2285,00;0,0135
2284,00;0,0134
2283,00;0,0134
2282,00;0,0133
2281,00;0,0133
2280,00;0,0132
2279,00;0,0132
2278,00;0,0131
2277,00;0,0131
2276,00;0,0130
2275,00;0,0130
2274,00;0,0129
2273,00;0,0128
2272,00;0,0128
2271,00;0,0127
2270,00;0,0127
2269,00;0,0127
2268,00;0,0127
2267,00;0,0127
2266,00;0,0126
2265,00;0,0126
2264,00;0,0126
2263,00;0,0126
2262,00;0,0126
2261,00;0,0126
2260,00;0,0126
2259,00;0,0126
2258,00;0,0126
2257,00;0,0126
2256,00;0,0126
2255,00;0,0126
2254,00;0,0125
2253,00;0,0125
2252,00;0,0125
2251,00;0,0125
2250,00;0,0125
2249,00;0,0125
2248,00;0,0125
2247,00;0,0125
2246,00;0,0125
2245,00;0,0125
2244,00;0,0125
2243,00;0,0124
2242,00;0,0124
2241,00;0,0124
2240,00;0,0124
2239,00;0,0124
2238,00;0,0124
2237,00;0,0124
2236,00;0,0124
2235,00;0,0124
2234,00;0,0124
2233,00;0,0124
2232,00;0,0124
2231,00;0,0123
2230,00;0,0123
2229,00;0,0123
2228,00;0,0123
2227,00;0,0123
2226,00;0,0123
2225,00;0,0123
2224,00;0,0123
2223,00;0,0123
2222,00;0,0123
2221,00;0,0123
2220,00;0,0123
2219,00;0,0123
2218,00;0,0123
2217,00;0,0123
2216,00;0,0123
2215,00;0,0123
2214,00;0,0123
2213,00;0,0123
2212,00;0,0123
2211,00;0,0123
2210,00;0,0123
2209,00;0,0123
2208,00;0,0122
2207,00;0,0122
2206,00;0,0122
2205,00;0,0122
2204,00;0,0122
2203,00;0,0122
2202,00;0,0122
2201,00;0,0122
2200,00;0,0122
2199,00;0,0122
2198,00;0,0122
2197,00;0,0122
2196,00;0,0122
2195,00;0,0122
2194,00;0,0122
2193,00;0,0122
2192,00;0,0122
2191,00;0,0122
2190,00;0,0122
2189,00;0,0122
2188,00;0,0122
2187,00;0,0122
2186,00;0,0123
2185,00;0,0123
2184,00;0,0123
2183,00;0,0121
2182,00;0,0120
2181,00;0,0119
2180,00;0,0119
2179,00;0,0119
2178,00;0,0119
2177,00;0,0118
2176,00;0,0118
2175,00;0,0117
2174,00;0,0117
2173,00;0,0118
2172,00;0,0118
2171,00;0,0119
2170,00;0,0119
2169,00;0,0119
2168,00;0,0120
2167,00;0,0120
2166,00;0,0121
2165,00;0,0122
2164,00;0,0123
2163,00;0,0124
2162,00;0,0124
2161,00;0,0123
2160,00;0,0120
2159,00;0,0116
2158,00;0,0112
2157,00;0,0110
2156,00;0,0109
2155,00;0,0109
2154,00;0,0108
2153,00;0,0108
2152,00;0,0108
2151,00;0,0109
2150,00;0,0109
2149,00;0,0109
2148,00;0,0109
2147,00;0,0108
2146,00;0,0108
2145,00;0,0108
2144,00;0,0108
2143,00;0,0109
2142,00;0,0109
2141,00;0,0109
2140,00;0,0110
2139,00;0,0110
2138,00;0,0109
2137,00;0,0108
2136,00;0,0107
2135,00;0,0106
2134,00;0,0106
2133,00;0,0107
2132,00;0,0108
2131,00;0,0109
2130,00;0,0110
2129,00;0,0110
2128,00;0,0111
2127,00;0,0111
2126,00;0,0111
2125,00;0,0112
2124,00;0,0113
2123,00;0,0113
2122,00;0,0114
2121,00;0,0115
2120,00;0,0115
2119,00;0,0115
2118,00;0,0116
2117,00;0,0116
2116,00;0,0117
2115,00;0,0117
2114,00;0,0117
2113,00;0,0118
2112,00;0,0118
2111,00;0,0118
2110,00;0,0117
2109,00;0,0117
2108,00;0,0117
2107,00;0,0117
2106,00;0,0117
2105,00;0,0118
2104,00;0,0118
2103,00;0,0117
2102,00;0,0117
2101,00;0,0117
2100,00;0,0117
2099,00;0,0117
2098,00;0,0116
2097,00;0,0116
2096,00;0,0116
2095,00;0,0116
2094,00;0,0116
2093,00;0,0116
2092,00;0,0117
2091,00;0,0117
2090,00;0,0118
2089,00;0,0117
2088,00;0,0117
2087,00;0,0117
2086,00;0,0117
2085,00;0,0117
2084,00;0,0117
2083,00;0,0117
2082,00;0,0117
2081,00;0,0117
2080,00;0,0117
2079,00;0,0117
2078,00;0,0117
2077,00;0,0117
2076,00;0,0118
2075,00;0,0118
2074,00;0,0118
2073,00;0,0118
2072,00;0,0118
2071,00;0,0118
2070,00;0,0118
2069,00;0,0118
2068,00;0,0118
2067,00;0,0118
2066,00;0,0118
2065,00;0,0118
2064,00;0,0118
2063,00;0,0118
2062,00;0,0118
2061,00;0,0118
2060,00;0,0118
2059,00;0,0118
2058,00;0,0118
2057,00;0,0119
2056,00;0,0119
2055,00;0,0119
2054,00;0,0119
2053,00;0,0119
2052,00;0,0119
2051,00;0,0119
2050,00;0,0119
2049,00;0,0119
2048,00;0,0119
2047,00;0,0119
2046,00;0,0118
2045,00;0,0118
2044,00;0,0119
2043,00;0,0119
2042,00;0,0119
2041,00;0,0119
2040,00;0,0119
2039,00;0,0119
2038,00;0,0118
2037,00;0,0118
2036,00;0,0118
2035,00;0,0118
2034,00;0,0118
2033,00;0,0118
2032,00;0,0118
2031,00;0,0118
2030,00;0,0118
2029,00;0,0118
2028,00;0,0118
2027,00;0,0118
2026,00;0,0118
2025,00;0,0118
2024,00;0,0118
2023,00;0,0118
2022,00;0,0118
2021,00;0,0118
2020,00;0,0118
2019,00;0,0119
2018,00;0,0119
2017,00;0,0118
2016,00;0,0118
2015,00;0,0118
2014,00;0,0118
2013,00;0,0118
2012,00;0,0118
2011,00;0,0118
2010,00;0,0118
2009,00;0,0117
2008,00;0,0117
2007,00;0,0116
2006,00;0,0116
2005,00;0,0115
2004,00;0,0115
2003,00;0,0115
2002,00;0,0115
2001,00;0,0116
2000,00;0,0117
1999,00;0,0117
1998,00;0,0117
1997,00;0,0117
1996,00;0,0116
1995,00;0,0116
1994,00;0,0116
1993,00;0,0116
1992,00;0,0117
1991,00;0,0117
1990,00;0,0117
1989,00;0,0117
1988,00;0,0117
1987,00;0,0117
1986,00;0,0116
1985,00;0,0116
1984,00;0,0116
1983,00;0,0117
1982,00;0,0118
1981,00;0,0119
1980,00;0,0119
1979,00;0,0118
1978,00;0,0117
1977,00;0,0116
1976,00;0,0114
1975,00;0,0113
1974,00;0,0111
1973,00;0,0110
1972,00;0,0110
1971,00;0,0110
1970,00;0,0110
1969,00;0,0109
1968,00;0,0109
1967,00;0,0109
1966,00;0,0109
1965,00;0,0109
1964,00;0,0110
1963,00;0,0110
1962,00;0,0109
1961,00;0,0108
1960,00;0,0107
1959,00;0,0106
1958,00;0,0106
1957,00;0,0107
1956,00;0,0108
1955,00;0,0109
1954,00;0,0109
1953,00;0,0109
1952,00;0,0109
1951,00;0,0109
1950,00;0,0108
1949,00;0,0108
1948,00;0,0108
1947,00;0,0108
1946,00;0,0108
1945,00;0,0108
1944,00;0,0108
1943,00;0,0108
1942,00;0,0108
1941,00;0,0109
1940,00;0,0109
1939,00;0,0108
1938,00;0,0108
1937,00;0,0108
1936,00;0,0108
1935,00;0,0108
1934,00;0,0108
1933,00;0,0108
1932,00;0,0108
1931,00;0,0108
1930,00;0,0108
1929,00;0,0108
1928,00;0,0108
1927,00;0,0108
1926,00;0,0108
1925,00;0,0109
1924,00;0,0109
1923,00;0,0109
1922,00;0,0109
1921,00;0,0109
1920,00;0,0109
1919,00;0,0109
1918,00;0,0109
1917,00;0,0109
1916,00;0,0109
1915,00;0,0109
1914,00;0,0109
1913,00;0,0109
1912,00;0,0109
1911,00;0,0109
1910,00;0,0109
1909,00;0,0109
1908,00;0,0109
1907,00;0,0109
1906,00;0,0109
1905,00;0,0109
1904,00;0,0109
1903,00;0,0109
1902,00;0,0109
1901,00;0,0109
1900,00;0,0109
1899,00;0,0109
1898,00;0,0109
1897,00;0,0109
1896,00;0,0109
1895,00;0,0109
1894,00;0,0109
1893,00;0,0109
1892,00;0,0109
1891,00;0,0109
1890,00;0,0109
1889,00;0,0109
1888,00;0,0109
1887,00;0,0108
1886,00;0,0108
1885,00;0,0108
1884,00;0,0108
1883,00;0,0108
1882,00;0,0108
1881,00;0,0108
1880,00;0,0108
1879,00;0,0108
1878,00;0,0108
1877,00;0,0108
1876,00;0,0108
1875,00;0,0108
1874,00;0,0108
1873,00;0,0108
1872,00;0,0108
1871,00;0,0108
1870,00;0,0108
1869,00;0,0108
1868,00;0,0108
1867,00;0,0108
1866,00;0,0108
1865,00;0,0108
1864,00;0,0108
1863,00;0,0108
1862,00;0,0108
1861,00;0,0108
1860,00;0,0108
1859,00;0,0108
1858,00;0,0108
1857,00;0,0108
1856,00;0,0108
1855,00;0,0108
1854,00;0,0108
1853,00;0,0108
1852,00;0,0108
1851,00;0,0108
1850,00;0,0108
1849,00;0,0108
1848,00;0,0108
1847,00;0,0108
1846,00;0,0108
1845,00;0,0108
1844,00;0,0108
1843,00;0,0108
1842,00;0,0108
1841,00;0,0108
1840,00;0,0108
1839,00;0,0108
1838,00;0,0108
1837,00;0,0108
1836,00;0,0108
1835,00;0,0108
1834,00;0,0108
1833,00;0,0108
1832,00;0,0108
1831,00;0,0108
1830,00;0,0108
1829,00;0,0108
1828,00;0,0108
1827,00;0,0108
1826,00;0,0108
1825,00;0,0108
1824,00;0,0108
1823,00;0,0108
1822,00;0,0108
1821,00;0,0108
1820,00;0,0108
1819,00;0,0108
1818,00;0,0108
1817,00;0,0108
1816,00;0,0108
1815,00;0,0108
1814,00;0,0108
1813,00;0,0108
1812,00;0,0108
1811,00;0,0108
1810,00;0,0108
1809,00;0,0108
1808,00;0,0108
1807,00;0,0108
1806,00;0,0108
1805,00;0,0107
1804,00;0,0107
1803,00;0,0107
1802,00;0,0108
1801,00;0,0108
1800,00;0,0108
1799,00;0,0108
1798,00;0,0108
1797,00;0,0108
1796,00;0,0108
1795,00;0,0107
1794,00;0,0107
1793,00;0,0107
1792,00;0,0108
1791,00;0,0109
1790,00;0,0109
1789,00;0,0109
1788,00;0,0109
1787,00;0,0108
1786,00;0,0108
1785,00;0,0109
1784,00;0,0109
1783,00;0,0109
1782,00;0,0108
1781,00;0,0108
1780,00;0,0109
1779,00;0,0109
1778,00;0,0108
1777,00;0,0108
1776,00;0,0108
1775,00;0,0108
1774,00;0,0107
1773,00;0,0108
1772,00;0,0109
1771,00;0,0110
1770,00;0,0110
1769,00;0,0110
1768,00;0,0111
1767,00;0,0112
1766,00;0,0112
1765,00;0,0111
1764,00;0,0112
1763,00;0,0112
1762,00;0,0113
1761,00;0,0115
1760,00;0,0116
1759,00;0,0116
1758,00;0,0116
1757,00;0,0117
1756,00;0,0118
1755,00;0,0119
1754,00;0,0118
1753,00;0,0118
1752,00;0,0120
1751,00;0,0121
1750,00;0,0123
1749,00;0,0125
1748,00;0,0128
1747,00;0,0131
1746,00;0,0135
1745,00;0,0138
1744,00;0,0142
1743,00;0,0146
1742,00;0,0151
1741,00;0,0157
1740,00;0,0165
1739,00;0,0173
1738,00;0,0180
1737,00;0,0186
1736,00;0,0194
1735,00;0,0206
1734,00;0,0220
1733,00;0,0234
1732,00;0,0247
1731,00;0,0258
1730,00;0,0270
1729,00;0,0283
1728,00;0,0297
1727,00;0,0311
1726,00;0,0324
1725,00;0,0338
1724,00;0,0354
1723,00;0,0368
1722,00;0,0382
1721,00;0,0395
1720,00;0,0408
1719,00;0,0423
1718,00;0,0439
1717,00;0,0456
1716,00;0,0472
1715,00;0,0486
1714,00;0,0499
1713,00;0,0511
1712,00;0,0524
1711,00;0,0537
1710,00;0,0549
1709,00;0,0560
1708,00;0,0572
1707,00;0,0585
1706,00;0,0599
1705,00;0,0612
1704,00;0,0626
1703,00;0,0638
1702,00;0,0652
1701,00;0,0668
1700,00;0,0685
1699,00;0,0701
1698,00;0,0715
1697,00;0,0730
1696,00;0,0747
1695,00;0,0764
1694,00;0,0779
1693,00;0,0793
1692,00;0,0808
1691,00;0,0824
1690,00;0,0840
1689,00;0,0855
1688,00;0,0870
1687,00;0,0884
1686,00;0,0899
1685,00;0,0914
1684,00;0,0929
1683,00;0,0943
1682,00;0,0956
1681,00;0,0971
1680,00;0,0986
1679,00;0,1000
1678,00;0,1013
1677,00;0,1026
1676,00;0,1040
1675,00;0,1052
1674,00;0,1064
1673,00;0,1077
1672,00;0,1090
1671,00;0,1103
1670,00;0,1114
1669,00;0,1125
1668,00;0,1137
1667,00;0,1149
1666,00;0,1160
1665,00;0,1172
1664,00;0,1183
1663,00;0,1192
1662,00;0,1200
1661,00;0,1209
1660,00;0,1218
1659,00;0,1227
1658,00;0,1235
1657,00;0,1244
1656,00;0,1253
1655,00;0,1262
1654,00;0,1264
1653,00;0,1257
1652,00;0,1252
1651,00;0,1253
1650,00;0,1258
1649,00;0,1263
1648,00;0,1266
1647,00;0,1263
1646,00;0,1258
1645,00;0,1255
1644,00;0,1255
1643,00;0,1257
1642,00;0,1258
1641,00;0,1258
1640,00;0,1259
1639,00;0,1260
1638,00;0,1261
1637,00;0,1260
1636,00;0,1254
1635,00;0,1247
1634,00;0,1241
1633,00;0,1239
1632,00;0,1239
1631,00;0,1239
1630,00;0,1237
1629,00;0,1232
1628,00;0,1226
1627,00;0,1221
1626,00;0,1216
1625,00;0,1212
1624,00;0,1205
1623,00;0,1196
1622,00;0,1188
1621,00;0,1182
1620,00;0,1178
1619,00;0,1174
1618,00;0,1165
1617,00;0,1151
1616,00;0,1135
1615,00;0,1121
1614,00;0,1112
1613,00;0,1103
1612,00;0,1092
1611,00;0,1080
1610,00;0,1065
1609,00;0,1049
1608,00;0,1032
1607,00;0,1015
1606,00;0,0998
1605,00;0,0981
1604,00;0,0962
1603,00;0,0943
1602,00;0,0923
1601,00;0,0903
1600,00;0,0882
1599,00;0,0862
1598,00;0,0842
1597,00;0,0821
1596,00;0,0800
1595,00;0,0779
1594,00;0,0759
1593,00;0,0739
1592,00;0,0719
1591,00;0,0701
1590,00;0,0683
1589,00;0,0666
1588,00;0,0649
1587,00;0,0634
1586,00;0,0619
1585,00;0,0604
1584,00;0,0590
1583,00;0,0577
1582,00;0,0564
1581,00;0,0552
1580,00;0,0542
1579,00;0,0532
1578,00;0,0523
1577,00;0,0512
1576,00;0,0501
1575,00;0,0490
1574,00;0,0482
1573,00;0,0476
1572,00;0,0470
1571,00;0,0462
1570,00;0,0455
1569,00;0,0448
1568,00;0,0442
1567,00;0,0437
1566,00;0,0433
1565,00;0,0428
1564,00;0,0423
1563,00;0,0420
1562,00;0,0417
1561,00;0,0413
1560,00;0,0407
1559,00;0,0401
1558,00;0,0397
1557,00;0,0394
1556,00;0,0393
1555,00;0,0391
1554,00;0,0389
1553,00;0,0387
1552,00;0,0385
1551,00;0,0383
1550,00;0,0382
1549,00;0,0380
1548,00;0,0377
1547,00;0,0376
1546,00;0,0374
1545,00;0,0372
1544,00;0,0370
1543,00;0,0368
1542,00;0,0367
1541,00;0,0365
1540,00;0,0364
1539,00;0,0363
1538,00;0,0363
1537,00;0,0361
1536,00;0,0360
1535,00;0,0359
1534,00;0,0358
1533,00;0,0357
1532,00;0,0356
1531,00;0,0356
1530,00;0,0355
1529,00;0,0355
1528,00;0,0354
1527,00;0,0353
1526,00;0,0352
1525,00;0,0351
1524,00;0,0350
1523,00;0,0349
1522,00;0,0349
1521,00;0,0349
1520,00;0,0348
1519,00;0,0347
1518,00;0,0346
1517,00;0,0346
1516,00;0,0346
1515,00;0,0346
1514,00;0,0346
1513,00;0,0345
1512,00;0,0345
1511,00;0,0344
1510,00;0,0344
1509,00;0,0344
1508,00;0,0344
1507,00;0,0343
1506,00;0,0343
1505,00;0,0343
1504,00;0,0343
1503,00;0,0343
1502,00;0,0343
1501,00;0,0343
1500,00;0,0343
1499,00;0,0343
1498,00;0,0344
1497,00;0,0345
1496,00;0,0345
1495,00;0,0346
1494,00;0,0346
1493,00;0,0346
1492,00;0,0347
1491,00;0,0347
1490,00;0,0348
1489,00;0,0349
1488,00;0,0351
1487,00;0,0353
1486,00;0,0355
1485,00;0,0356
1484,00;0,0357
1483,00;0,0358
1482,00;0,0360
1481,00;0,0361
1480,00;0,0362
1479,00;0,0363
1478,00;0,0364
1477,00;0,0365
1476,00;0,0367
1475,00;0,0368
1474,00;0,0369
1473,00;0,0370
1472,00;0,0370
1471,00;0,0371
1470,00;0,0371
1469,00;0,0372
1468,00;0,0372
1467,00;0,0372
1466,00;0,0372
1465,00;0,0372
1464,00;0,0371
1463,00;0,0371
1462,00;0,0371
1461,00;0,0371
1460,00;0,0372
1459,00;0,0372
1458,00;0,0372
1457,00;0,0372
1456,00;0,0372
1455,00;0,0372
1454,00;0,0372
1453,00;0,0372
1452,00;0,0373
1451,00;0,0373
1450,00;0,0374
1449,00;0,0374
1448,00;0,0375
1447,00;0,0375
1446,00;0,0376
1445,00;0,0377
1444,00;0,0377
1443,00;0,0378
1442,00;0,0379
1441,00;0,0379
1440,00;0,0379
1439,00;0,0380
1438,00;0,0380
1437,00;0,0380
1436,00;0,0380
1435,00;0,0381
1434,00;0,0381
1433,00;0,0381
1432,00;0,0381
1431,00;0,0382
1430,00;0,0382
1429,00;0,0382
1428,00;0,0382
1427,00;0,0382
1426,00;0,0382
1425,00;0,0382
1424,00;0,0382
1423,00;0,0381
1422,00;0,0381
1421,00;0,0381
1420,00;0,0381
1419,00;0,0381
1418,00;0,0380
1417,00;0,0380
1416,00;0,0379
1415,00;0,0379
1414,00;0,0378
1413,00;0,0378
1412,00;0,0377
1411,00;0,0376
1410,00;0,0375
1409,00;0,0374
1408,00;0,0373
1407,00;0,0372
1406,00;0,0371
1405,00;0,0370
1404,00;0,0369
1403,00;0,0369
1402,00;0,0368
1401,00;0,0368
1400,00;0,0367
1399,00;0,0366
1398,00;0,0364
1397,00;0,0364
1396,00;0,0363
1395,00;0,0363
1394,00;0,0363
1393,00;0,0362
1392,00;0,0362
1391,00;0,0361
1390,00;0,0361
1389,00;0,0361
1388,00;0,0361
1387,00;0,0362
1386,00;0,0362
1385,00;0,0363
1384,00;0,0363
1383,00;0,0365
1382,00;0,0366
1381,00;0,0368
1380,00;0,0369
1379,00;0,0371
1378,00;0,0373
1377,00;0,0376
1376,00;0,0379
1375,00;0,0382
1374,00;0,0386
1373,00;0,0391
1372,00;0,0396
1371,00;0,0402
1370,00;0,0409
1369,00;0,0417
1368,00;0,0425
1367,00;0,0434
1366,00;0,0443
1365,00;0,0452
1364,00;0,0462
1363,00;0,0472
1362,00;0,0481
1361,00;0,0488
1360,00;0,0493
1359,00;0,0496
1358,00;0,0497
1357,00;0,0496
1356,00;0,0493
1355,00;0,0488
1354,00;0,0482
1353,00;0,0476
1352,00;0,0470
1351,00;0,0466
1350,00;0,0462
1349,00;0,0459
1348,00;0,0457
1347,00;0,0456
1346,00;0,0456
1345,00;0,0457
1344,00;0,0458
1343,00;0,0461
1342,00;0,0464
1341,00;0,0469
1340,00;0,0475
1339,00;0,0482
1338,00;0,0490
1337,00;0,0499
1336,00;0,0509
1335,00;0,0521
1334,00;0,0534
1333,00;0,0548
1332,00;0,0565
1331,00;0,0583
1330,00;0,0602
1329,00;0,0623
1328,00;0,0644
1327,00;0,0666
1326,00;0,0688
1325,00;0,0711
1324,00;0,0732
1323,00;0,0753
1322,00;0,0773
1321,00;0,0790
1320,00;0,0804
1319,00;0,0815
1318,00;0,0822
1317,00;0,0826
1316,00;0,0826
1315,00;0,0822
1314,00;0,0815
1313,00;0,0803
1312,00;0,0789
1311,00;0,0773
1310,00;0,0754
1309,00;0,0735
1308,00;0,0714
1307,00;0,0692
1306,00;0,0671
1305,00;0,0650
1304,00;0,0628
1303,00;0,0607
1302,00;0,0586
1301,00;0,0566
1300,00;0,0547
1299,00;0,0528
1298,00;0,0510
1297,00;0,0492
1296,00;0,0476
1295,00;0,0459
1294,00;0,0444
1293,00;0,0429
1292,00;0,0415
1291,00;0,0402
1290,00;0,0389
1289,00;0,0377
1288,00;0,0366
1287,00;0,0355
1286,00;0,0344
1285,00;0,0334
1284,00;0,0325
1283,00;0,0316
1282,00;0,0308
1281,00;0,0300
1280,00;0,0292
1279,00;0,0285
1278,00;0,0278
1277,00;0,0271
1276,00;0,0265
1275,00;0,0259
1274,00;0,0253
1273,00;0,0248
1272,00;0,0243
1271,00;0,0237
1270,00;0,0232
1269,00;0,0228
1268,00;0,0224
1267,00;0,0219
1266,00;0,0216
1265,00;0,0212
1264,00;0,0208
1263,00;0,0204
1262,00;0,0201
1261,00;0,0198
1260,00;0,0195
1259,00;0,0192
1258,00;0,0190
1257,00;0,0187
1256,00;0,0185
1255,00;0,0182
1254,00;0,0180
1253,00;0,0178
1252,00;0,0176
1251,00;0,0174
1250,00;0,0172
1249,00;0,0171
1248,00;0,0169
1247,00;0,0167
1246,00;0,0165
1245,00;0,0164
1244,00;0,0162
1243,00;0,0161
1242,00;0,0159
1241,00;0,0158
1240,00;0,0157
1239,00;0,0156
1238,00;0,0155
1237,00;0,0154
1236,00;0,0152
1235,00;0,0151
1234,00;0,0150
1233,00;0,0149
1232,00;0,0147
1231,00;0,0146
1230,00;0,0145
1229,00;0,0145
1228,00;0,0144
1227,00;0,0143
1226,00;0,0143
1225,00;0,0142
1224,00;0,0141
1223,00;0,0140
1222,00;0,0140
1221,00;0,0139
1220,00;0,0139
1219,00;0,0138
1218,00;0,0137
1217,00;0,0136
1216,00;0,0135
1215,00;0,0135
1214,00;0,0134
1213,00;0,0134
1212,00;0,0133
1211,00;0,0133
1210,00;0,0133
1209,00;0,0133
1208,00;0,0132
1207,00;0,0132
1206,00;0,0131
1205,00;0,0130
1204,00;0,0130
1203,00;0,0130
1202,00;0,0129
1201,00;0,0129
1200,00;0,0128
1199,00;0,0127
1198,00;0,0127
1197,00;0,0127
1196,00;0,0127
1195,00;0,0126
1194,00;0,0126
1193,00;0,0126
1192,00;0,0126
1191,00;0,0125
1190,00;0,0125
1189,00;0,0125
1188,00;0,0125
1187,00;0,0124
1186,00;0,0124
1185,00;0,0123
1184,00;0,0123
1183,00;0,0123
1182,00;0,0123
1181,00;0,0123
1180,00;0,0122
1179,00;0,0122
1178,00;0,0122
1177,00;0,0122
1176,00;0,0121
1175,00;0,0121
1174,00;0,0121
1173,00;0,0120
1172,00;0,0120
1171,00;0,0120
1170,00;0,0120
1169,00;0,0119
1168,00;0,0119
1167,00;0,0119
1166,00;0,0118
1165,00;0,0118
1164,00;0,0118
1163,00;0,0118
1162,00;0,0119
1161,00;0,0119
1160,00;0,0119
1159,00;0,0118
1158,00;0,0118
1157,00;0,0118
1156,00;0,0118
1155,00;0,0118
1154,00;0,0118
1153,00;0,0118
1152,00;0,0118
1151,00;0,0119
1150,00;0,0118
1149,00;0,0118
1148,00;0,0118
1147,00;0,0118
1146,00;0,0118
1145,00;0,0119
1144,00;0,0119
1143,00;0,0120
1142,00;0,0120
1141,00;0,0120
1140,00;0,0120
1139,00;0,0120
1138,00;0,0120
1137,00;0,0120
1136,00;0,0120
1135,00;0,0121
1134,00;0,0121
1133,00;0,0122
1132,00;0,0122
1131,00;0,0122
1130,00;0,0122
1129,00;0,0123
1128,00;0,0123
1127,00;0,0123
1126,00;0,0124
1125,00;0,0124
1124,00;0,0124
1123,00;0,0124
1122,00;0,0124
1121,00;0,0124
1120,00;0,0124
1119,00;0,0124
1118,00;0,0125
1117,00;0,0125
1116,00;0,0125
1115,00;0,0126
1114,00;0,0126
1113,00;0,0126
1112,00;0,0126
1111,00;0,0126
1110,00;0,0126
1109,00;0,0127
1108,00;0,0127
1107,00;0,0128
1106,00;0,0129
1105,00;0,0130
1104,00;0,0131
1103,00;0,0132
1102,00;0,0133
1101,00;0,0133
1100,00;0,0134
1099,00;0,0135
1098,00;0,0135
1097,00;0,0136
1096,00;0,0137
1095,00;0,0137
1094,00;0,0138
1093,00;0,0138
1092,00;0,0139
1091,00;0,0139
1090,00;0,0139
1089,00;0,0139
1088,00;0,0139
1087,00;0,0140
1086,00;0,0141
1085,00;0,0142
1084,00;0,0143
1083,00;0,0143
1082,00;0,0143
1081,00;0,0142
1080,00;0,0142
1079,00;0,0142
1078,00;0,0142
1077,00;0,0141
1076,00;0,0141
1075,00;0,0140
1074,00;0,0140
1073,00;0,0140
1072,00;0,0140
1071,00;0,0139
1070,00;0,0139
1069,00;0,0139
1068,00;0,0139
1067,00;0,0138
1066,00;0,0137
1065,00;0,0137
1064,00;0,0136
1063,00;0,0136
1062,00;0,0135
1061,00;0,0135
1060,00;0,0134
1059,00;0,0133
1058,00;0,0133
1057,00;0,0133
1056,00;0,0133
1055,00;0,0133
1054,00;0,0133
1053,00;0,0132
1052,00;0,0132
1051,00;0,0131
1050,00;0,0130
1049,00;0,0128
1048,00;0,0127
1047,00;0,0126
1046,00;0,0125
1045,00;0,0125
1044,00;0,0124
1043,00;0,0123
1042,00;0,0123
1041,00;0,0122
1040,00;0,0121
1039,00;0,0121
1038,00;0,0120
1037,00;0,0120
1036,00;0,0120
1035,00;0,0119
1034,00;0,0119
1033,00;0,0118
1032,00;0,0117
1031,00;0,0116
1030,00;0,0116
1029,00;0,0115
1028,00;0,0115
1027,00;0,0114
1026,00;0,0114
1025,00;0,0114
1024,00;0,0114
1023,00;0,0113
1022,00;0,0113
1021,00;0,0113
1020,00;0,0113
1019,00;0,0112
1018,00;0,0112
1017,00;0,0111
1016,00;0,0111
1015,00;0,0111
1014,00;0,0110
1013,00;0,0110
1012,00;0,0110
1011,00;0,0110
1010,00;0,0110
1009,00;0,0110
1008,00;0,0110
1007,00;0,0110
1006,00;0,0109
1005,00;0,0109
1004,00;0,0108
1003,00;0,0108
1002,00;0,0108
1001,00;0,0108
1000,00;0,0108
999,00;0,0108
998,00;0,0108
997,00;0,0108
996,00;0,0108
995,00;0,0108
994,00;0,0108
993,00;0,0108
992,00;0,0108
991,00;0,0108
990,00;0,0108
989,00;0,0108
988,00;0,0108
987,00;0,0108
986,00;0,0108
985,00;0,0108
984,00;0,0108
983,00;0,0107
982,00;0,0107
981,00;0,0108
980,00;0,0108
979,00;0,0108
978,00;0,0108
977,00;0,0107
976,00;0,0107
975,00;0,0108
974,00;0,0108
973,00;0,0108
972,00;0,0108
971,00;0,0108
970,00;0,0108
969,00;0,0108
968,00;0,0108
967,00;0,0108
966,00;0,0108
965,00;0,0108
964,00;0,0108
963,00;0,0108
962,00;0,0108
961,00;0,0108
960,00;0,0108
959,00;0,0108
958,00;0,0108
957,00;0,0108
956,00;0,0108
955,00;0,0108
954,00;0,0108
953,00;0,0108
952,00;0,0108
951,00;0,0108
950,00;0,0107
949,00;0,0107
948,00;0,0108
947,00;0,0108
946,00;0,0108
945,00;0,0107
944,00;0,0107
943,00;0,0108
942,00;0,0108
941,00;0,0108
940,00;0,0109
939,00;0,0109
938,00;0,0110
937,00;0,0109
936,00;0,0109
935,00;0,0108
934,00;0,0108
933,00;0,0109
932,00;0,0110
931,00;0,0110
930,00;0,0111
929,00;0,0111
928,00;0,0111
927,00;0,0111
926,00;0,0112
925,00;0,0113
924,00;0,0113
923,00;0,0114
922,00;0,0114
921,00;0,0115
920,00;0,0116
919,00;0,0116
918,00;0,0117
917,00;0,0118
916,00;0,0119
915,00;0,0120
914,00;0,0121
913,00;0,0121
912,00;0,0121
911,00;0,0121
910,00;0,0121
909,00;0,0121
908,00;0,0120
907,00;0,0120
906,00;0,0120
905,00;0,0120
904,00;0,0119
903,00;0,0118
902,00;0,0117
901,00;0,0115
900,00;0,0114
899,00;0,0113
898,00;0,0113
897,00;0,0112
896,00;0,0111
895,00;0,0110
894,00;0,0109
893,00;0,0109
892,00;0,0109
891,00;0,0108
890,00;0,0109
889,00;0,0108
888,00;0,0108
887,00;0,0107
886,00;0,0107
885,00;0,0107
884,00;0,0107
883,00;0,0107
882,00;0,0107
881,00;0,0107
880,00;0,0107
879,00;0,0107
878,00;0,0107
877,00;0,0107
876,00;0,0107
875,00;0,0108
874,00;0,0109
873,00;0,0110
872,00;0,0111
871,00;0,0113
870,00;0,0114
869,00;0,0116
868,00;0,0117
867,00;0,0118
866,00;0,0119
865,00;0,0119
864,00;0,0120
863,00;0,0119
862,00;0,0119
861,00;0,0119
860,00;0,0120
859,00;0,0121
858,00;0,0122
857,00;0,0123
856,00;0,0123
855,00;0,0122
854,00;0,0121
853,00;0,0121
852,00;0,0121
851,00;0,0121
850,00;0,0121
849,00;0,0121
848,00;0,0120
847,00;0,0119
846,00;0,0118
845,00;0,0117
844,00;0,0115
843,00;0,0114
842,00;0,0114
841,00;0,0114
840,00;0,0113
839,00;0,0111
838,00;0,0110
837,00;0,0108
836,00;0,0107
835,00;0,0107
834,00;0,0107
833,00;0,0108
832,00;0,0108
831,00;0,0108
830,00;0,0107
829,00;0,0106
828,00;0,0105
827,00;0,0105
826,00;0,0105
825,00;0,0106
824,00;0,0107
823,00;0,0108
822,00;0,0110
821,00;0,0112
820,00;0,0114
819,00;0,0117
818,00;0,0122
817,00;0,0128
816,00;0,0136
815,00;0,0147
814,00;0,0158
813,00;0,0171
812,00;0,0184
811,00;0,0199
810,00;0,0217
809,00;0,0239
808,00;0,0264
807,00;0,0292
806,00;0,0322
805,00;0,0354
804,00;0,0386
803,00;0,0417
802,00;0,0448
801,00;0,0476
800,00;0,0502
799,00;0,0526
798,00;0,0545
797,00;0,0559
796,00;0,0566
795,00;0,0566
794,00;0,0560
793,00;0,0551
792,00;0,0540
791,00;0,0526
790,00;0,0512
789,00;0,0497
788,00;0,0481
787,00;0,0464
786,00;0,0448
785,00;0,0431
784,00;0,0415
783,00;0,0399
782,00;0,0383
781,00;0,0367
780,00;0,0349
779,00;0,0332
778,00;0,0313
777,00;0,0295
776,00;0,0278
775,00;0,0262
774,00;0,0248
773,00;0,0234
772,00;0,0220
771,00;0,0206
770,00;0,0193
769,00;0,0182
768,00;0,0173
767,00;0,0164
766,00;0,0155
765,00;0,0146
764,00;0,0139
763,00;0,0131
762,00;0,0125
761,00;0,0120
760,00;0,0117
759,00;0,0113
758,00;0,0111
757,00;0,0110
756,00;0,0109
755,00;0,0108
754,00;0,0106
753,00;0,0104
752,00;0,0103
751,00;0,0103
750,00;0,0103
749,00;0,0104
748,00;0,0106
747,00;0,0107
746,00;0,0108
745,00;0,0109
744,00;0,0111
743,00;0,0113
742,00;0,0116
741,00;0,0119
740,00;0,0122
739,00;0,0125
738,00;0,0127
737,00;0,0130
736,00;0,0132
735,00;0,0135
734,00;0,0139
733,00;0,0142
732,00;0,0145
731,00;0,0146
730,00;0,0147
729,00;0,0148
728,00;0,0149
727,00;0,0150
726,00;0,0151
725,00;0,0151
724,00;0,0151
723,00;0,0152
722,00;0,0153
721,00;0,0154
720,00;0,0155
719,00;0,0155
718,00;0,0155
717,00;0,0155
716,00;0,0156
715,00;0,0157
714,00;0,0158
713,00;0,0160
712,00;0,0162
711,00;0,0165
710,00;0,0167
709,00;0,0169
708,00;0,0171
707,00;0,0173
706,00;0,0175
705,00;0,0177
704,00;0,0180
703,00;0,0183
702,00;0,0186
701,00;0,0191
700,00;0,0195
699,00;0,0198
698,00;0,0201
697,00;0,0203
696,00;0,0206
695,00;0,0208
694,00;0,0211
693,00;0,0213
692,00;0,0215
691,00;0,0216
690,00;0,0216
689,00;0,0216
688,00;0,0216
687,00;0,0216
686,00;0,0215
685,00;0,0214
684,00;0,0213
683,00;0,0212
682,00;0,0213
681,00;0,0214
680,00;0,0216
679,00;0,0217
678,00;0,0218
677,00;0,0219
676,00;0,0220
675,00;0,0221
674,00;0,0223
673,00;0,0225
672,00;0,0228
671,00;0,0230
670,00;0,0231
669,00;0,0232
668,00;0,0234
667,00;0,0241
666,00;0,0248
665,00;0,0253
664,00;0,0258
663,00;0,0264
662,00;0,0270
661,00;0,0278
660,00;0,0285
659,00;0,0290
658,00;0,0293
657,00;0,0296
656,00;0,0300
655,00;0,0306
654,00;0,0311
653,00;0,0318
652,00;0,0324
651,00;0,0332
650,00;0,0339
649,00;0,0347
648,00;0,0356
647,00;0,0365
646,00;0,0373
645,00;0,0382
644,00;0,0392
643,00;0,0400
642,00;0,0407
641,00;0,0413
640,00;0,0419
639,00;0,0423
638,00;0,0427
637,00;0,0431
636,00;0,0436
635,00;0,0440
634,00;0,0442
633,00;0,0444
632,00;0,0447
631,00;0,0450
630,00;0,0451
629,00;0,0452
628,00;0,0454
627,00;0,0454
626,00;0,0453
625,00;0,0450
624,00;0,0448
623,00;0,0446
622,00;0,0445
621,00;0,0444
620,00;0,0445
619,00;0,0445
618,00;0,0445
617,00;0,0444
616,00;0,0443
615,00;0,0442
614,00;0,0442
613,00;0,0445
612,00;0,0450
611,00;0,0455
610,00;0,0459
609,00;0,0463
608,00;0,0467
607,00;0,0470
606,00;0,0474
605,00;0,0479
604,00;0,0485
603,00;0,0491
602,00;0,0496
601,00;0,0499
600,00;0,0503
599,00;0,0505
598,00;0,0507
597,00;0,0511
596,00;0,0516
595,00;0,0523
594,00;0,0529
593,00;0,0533
592,00;0,0536
591,00;0,0538
590,00;0,0541
589,00;0,0544
588,00;0,0548
587,00;0,0550
586,00;0,0552
585,00;0,0556
584,00;0,0559
583,00;0,0561
582,00;0,0561
581,00;0,0562
580,00;0,0565
579,00;0,0570
578,00;0,0572
577,00;0,0572
576,00;0,0572
575,00;0,0572
574,00;0,0575
573,00;0,0578
572,00;0,0580
571,00;0,0581
570,00;0,0578
569,00;0,0573
568,00;0,0571
567,00;0,0570
566,00;0,0573
565,00;0,0577
564,00;0,0582
563,00;0,0586
562,00;0,0587
561,00;0,0588
560,00;0,0588
559,00;0,0586
558,00;0,0584
557,00;0,0582
556,00;0,0581
555,00;0,0580
554,00;0,0580
553,00;0,0582
552,00;0,0583
551,00;0,0581
550,00;0,0574
549,00;0,0565
548,00;0,0556
547,00;0,0548
546,00;0,0539
545,00;0,0530
544,00;0,0519
543,00;0,0508
542,00;0,0497
541,00;0,0489
540,00;0,0482
539,00;0,0473
538,00;0,0460
537,00;0,0446
536,00;0,0431
535,00;0,0417
534,00;0,0401
533,00;0,0384
532,00;0,0369
531,00;0,0355
530,00;0,0342
529,00;0,0333
528,00;0,0325
527,00;0,0314
526,00;0,0300
525,00;0,0284
524,00;0,0272
523,00;0,0262
522,00;0,0255
521,00;0,0248
520,00;0,0240
519,00;0,0230
518,00;0,0223
517,00;0,0222
516,00;0,0226
515,00;0,0234
514,00;0,0243
513,00;0,0252
512,00;0,0264
511,00;0,0277
510,00;0,0289
509,00;0,0303
508,00;0,0317
507,00;0,0331
506,00;0,0342
505,00;0,0350
504,00;0,0353
503,00;0,0352
502,00;0,0347
501,00;0,0342
500,00;0,0336
499,00;0,0327
498,00;0,0314
497,00;0,0300
496,00;0,0288
495,00;0,0277
494,00;0,0266
493,00;0,0254
492,00;0,0241
491,00;0,0228
490,00;0,0218
489,00;0,0212
488,00;0,0208
487,00;0,0204
486,00;0,0201
485,00;0,0197
484,00;0,0194
483,00;0,0188
482,00;0,0182
481,00;0,0176
480,00;0,0172
479,00;0,0168
478,00;0,0165
477,00;0,0163
476,00;0,0161
475,00;0,0157
474,00;0,0153
473,00;0,0150
472,00;0,0149
471,00;0,0146
470,00;0,0139
469,00;0,0130
468,00;0,0124
467,00;0,0119
466,00;0,0114
465,00;0,0108
464,00;0,0102
463,00;0,0099
462,00;0,0100
461,00;0,0105
460,00;0,0112
459,00;0,0116
458,00;0,0112
457,00;0,0103
456,00;0,0097
455,00;0,0097
454,00;0,0104
453,00;0,0114
452,00;0,0120
451,00;0,0118
450,00;0,0112
